seconds_elapsed,accel_x,accel_y,accel_z,gyro_x,gyro_y,gyro_z
0.2034638671875,0.0671869963407516,-0.0357949994504451,0.2006909996271133,-0.0004124999977648,0.0016499999910593,-0.0004124999977648
0.23790576171875,0.0671869963407516,-0.0357949994504451,0.2006909996271133,0.0008249999955296,-0.0008249999955296,-0.0004124999977648
0.272347900390625,0.0671869963407516,-0.0357949994504451,0.2006909996271133,0.0008249999955296,0.0004124999977648,-0.0004124999977648
0.3067900390625,0.0671869963407516,-0.0357949994504451,0.2006909996271133,-0.0004124999977648,0.0004124999977648,-0.0004124999977648
0.341231689453125,-0.0182240009307861,-0.0078290002420544,0.0283390004187822,-0.0004124999977648,-0.0008249999955296,0.0008249999955296
0.375674072265625,-0.0268460009247064,0.0299079995602369,0.0283410008996725,0.0008249999955296,0.0016499999910593,-0.0004124999977648
0.410115966796875,-0.023972999304533,0.0196819994598627,0.071431003510952,0.0008249999955296,0.0004124999977648,-0.0004124999977648
0.44455810546875,-0.0043580001220107,0.0028270001057535,0.0092099998146295,-0.0004124999977648,0.0004124999977648,-0.0004124999977648
0.479,-0.0068009998649358,0.0118650002405047,0.0594849996268749,-0.0004124999977648,-0.0008249999955296,-0.0004124999977648
0.51344189453125,0.0161049999296665,0.073863998055458,-1.1154520511627195,-0.0162249989807605,0.02364999987185,-0.0004124999977648
0.54788427734375,0.0336799994111061,0.0658349990844726,-0.6177099943161011,-0.0114124994724988,0.0199375003576278,-0.0004124999977648
0.582325927734375,0.0072699999436736,0.0066800001077353,-0.3138349950313568,-0.0052249999716877,0.0053624999709427,0.0008249999955296
0.616767822265625,-0.022486999630928,0.0015480000292882,-0.1343799978494644,-0.0028874999843537,0.0053624999709427,-0.0004124999977648
0.651210205078125,-0.0006649999995715,0.0107399998232722,0.0092029999941587,-0.0004124999977648,0.0004124999977648,0.0008249999955296
0.685652099609375,0.0040000001899898,-0.0017729999963194,-0.0075179999694228,-0.0016499999910593,0.0004124999977648,-0.0004124999977648
0.72009423828125,0.0175480004400014,-0.0111189996823668,0.0547019988298416,-0.0016499999910593,0.0004124999977648,0.0020624999888241
0.754536376953125,-0.0085829999297857,0.0193639993667602,0.0020800000056624,-0.0016499999910593,-0.0008249999955296,0.0008249999955296
0.78897802734375,-0.0365879982709884,0.0898400023579597,0.0763019993901252,0.0008249999955296,0.0028874999843537,0.0008249999955296
0.82342041015625,-0.0568070001900196,0.0212799999862909,0.0835210010409355,-0.0004124999977648,-0.0031624999828636,-0.0004124999977648
0.8578623046875,0.017315000295639,-0.0290050003677606,0.0021639999467879,-0.0016499999910593,0.0016499999910593,-0.0004124999977648
0.89230419921875,0.0001800000027287,0.0050619998946785,0.126579999923706,-0.0004124999977648,-0.0019249999895691,0.0008249999955296
0.926746337890625,-0.0233709998428821,0.0472999997437,0.0667859986424446,0.0008249999955296,-0.0008249999955296,-0.0004124999977648
0.961188232421875,-0.0272450000047683,0.007511000148952,0.054866999387741,-0.0004124999977648,-0.0008249999955296,-0.0004124999977648
0.995630615234375,-0.0094680003821849,-0.0303700007498264,0.040472000837326,-0.0004124999977648,0.0016499999910593,-0.0004124999977648
1.030072509765625,0.0074269999749958,-0.0174880009144544,0.0763219967484474,0.0008249999955296,0.0004124999977648,-0.0016499999910593
1.064514404296875,0.0215980000793933,0.0157200004905462,0.0260869991034269,-0.0004124999977648,0.0004124999977648,-0.0004124999977648
1.098956787109375,0.0184439998120069,0.0034340000711381,0.0572250001132488,0.0008249999955296,-0.0008249999955296,0.0008249999955296
1.133398681640625,-0.0312779992818832,-0.0037239999510347,0.0787499994039535,-0.0016499999910593,-0.0008249999955296,-0.0004124999977648
1.167841064453125,0.0472900010645389,-0.0935510024428367,0.0977490022778511,-0.0039874999783933,0.0041249999776482,0.0008249999955296
1.202282958984375,-0.1223940029740333,0.2069839984178543,0.4902789890766144,0.0057749999687075,-0.0129249999299645,-0.0016499999910593
1.236724853515625,-0.0147439995780587,0.017663000151515,0.1912820041179657,0.0032999999821186,0.0004124999977648,-0.0004124999977648
1.2711669921875,0.0006000000284984,-0.1043419986963272,0.2007289975881576,-0.0004124999977648,-0.0043999999761581,-0.0016499999910593
1.305609130859375,0.0651940032839775,-0.0809239968657493,0.1742710024118423,0.0020624999888241,-0.0008249999955296,0.0008249999955296
1.340051025390625,-0.0328410007059574,0.1760119944810867,0.0380409993231296,-0.0004124999977648,-0.0019249999895691,-0.0004124999977648
1.3744931640625,-0.0179249998182058,0.015081999823451,0.0955910012125969,0.0020624999888241,-0.0008249999955296,-0.0004124999977648
1.40893505859375,-0.0405629985034465,-0.066780999302864,0.0835179984569549,-0.0004124999977648,-0.0008249999955296,-0.0004124999977648
1.443377197265625,0.0477790012955665,-0.0643389970064163,0.0642720013856887,-0.0004124999977648,0.0004124999977648,-0.0004124999977648
1.4778193359375,-0.0101100001484155,0.1203730031847953,0.009328999556601,-0.0004124999977648,0.0016499999910593,0.0008249999955296
1.51226123046875,-0.0329289995133876,0.0143740000203251,0.0668729990720748,0.0008249999955296,0.0004124999977648,-0.0016499999910593
1.546703369140625,-0.0296139996498823,-0.0887809991836547,0.0691519975662231,-0.0004124999977648,0.0004124999977648,0.0008249999955296
1.581145263671875,0.0090479999780654,-0.0132889999076724,0.0690890029072761,0.0008249999955296,-0.0008249999955296,-0.0004124999977648
1.61558740234375,-0.0035510000307112,0.0669059976935386,0.0380429998040199,0.0008249999955296,-0.0008249999955296,0.0008249999955296
1.66725048828125,-0.0189479999244213,-0.0668239966034889,0.0500719994306564,0.0020624999888241,-0.0008249999955296,-0.0016499999910593
1.7016923828125,-0.0067460001446306,-0.0476350001990795,0.0523560009896755,0.0008249999955296,-0.0008249999955296,0.0008249999955296
1.736134521484375,0.0098630003631114,0.0405189990997314,0.0188730005174875,0.0008249999955296,-0.0008249999955296,-0.0004124999977648
1.770576904296875,-0.0117629999294877,0.0572590008378028,0.030944000929594,-0.0004124999977648,-0.0008249999955296,0.0008249999955296
1.805018798828125,-0.0130300000309944,-0.0294220000505447,0.0644479990005493,0.0008249999955296,0.0004124999977648,-0.0004124999977648
1.839460693359375,0.0201660003513097,-0.0510010011494159,0.04042199999094,-0.0004124999977648,0.0004124999977648,-0.0004124999977648
1.87390283203125,0.005917000118643,0.05112199857831,0.014131000265479,-0.0004124999977648,0.0004124999977648,0.0008249999955296
1.9083447265625,-0.0130279995501041,0.0257769990712404,0.047690000385046,0.0008249999955296,0.0016499999910593,0.0008249999955296
1.942787109375,-0.0099010001868009,-0.0174989998340606,0.0117910001426935,0.0008249999955296,0.0004124999977648,-0.0004124999977648
1.97722900390625,0.0138029996305704,-0.0445289984345436,0.0643649995326995,-0.0004124999977648,0.0016499999910593,0.0008249999955296
2.0116708984375,-0.0101450001820921,0.045474998652935,0.0332980006933212,0.0008249999955296,-0.0008249999955296,-0.0004124999977648
2.046113037109375,-0.0094849998131394,0.0107570001855492,0.0476970002055168,-0.0004124999977648,0.0004124999977648,0.0008249999955296
2.08055517578125,0.0001250000059371,-0.0200689993798732,0.0548620000481605,-0.0004124999977648,-0.0008249999955296,-0.0004124999977648
2.114996826171875,0.0191799998283386,-0.0189890004694461,0.0404589995741844,0.0008249999955296,0.0016499999910593,-0.0004124999977648
2.149439208984375,-0.0121099995449185,0.0354669988155365,0.035700999200344,-0.0004124999977648,-0.0008249999955296,0.0008249999955296
2.183881103515625,-0.0088849999010562,0.0012730000307783,0.057252001017332,-0.0004124999977648,0.0004124999977648,-0.0004124999977648
2.218323486328125,0.0076469997875392,-0.0363130010664463,0.0356899984180927,0.0008249999955296,-0.0008249999955296,-0.0004124999977648
2.252765380859375,0.0003910000086762,-0.0070310002192854,0.0452370010316371,-0.0016499999910593,0.0004124999977648,-0.0004124999977648
2.28720751953125,-0.0184770002961158,0.0307180006057024,0.0572200007736682,-0.0004124999977648,-0.0008249999955296,-0.0004124999977648
2.321649658203125,-0.0012159999459981,0.005996000021696,0.0309229996055364,0.0008249999955296,-0.0008249999955296,-0.0004124999977648
2.356091552734375,0.0010369999799877,-0.0218250006437301,0.0978870019316673,0.0008249999955296,0.0004124999977648,-0.0004124999977648
2.390533447265625,0.0011449999874457,0.0094459997490048,0.0117340004071593,-0.0004124999977648,-0.0008249999955296,-0.0004124999977648
2.424975830078125,-0.0008720000041648,0.0186720006167888,0.0763500034809112,-0.0016499999910593,0.0004124999977648,0.0008249999955296
2.45941748046875,0.0065500000491738,-0.0033189998939633,0.0380779989063739,-0.0004124999977648,-0.0008249999955296,0.0008249999955296
2.49385986328125,0.011022999882698,-0.0288479998707771,0.0428370013833045,0.0008249999955296,0.0004124999977648,-0.0004124999977648
2.5283017578125,-0.0056940000504255,0.0145290000364184,0.0715370029211044,-0.0004124999977648,-0.0019249999895691,-0.0004124999977648
2.562743896484375,0.0015600000042468,0.0142590003088116,0.0452260002493858,-0.0004124999977648,-0.0008249999955296,-0.0004124999977648
2.59718603515625,0.0063330000266432,1.99999994947e-05,0.0500040017068386,-0.0004124999977648,0.0004124999977648,-0.0004124999977648
2.6316279296875,-0.0077860001474618,-0.0089530004188418,0.0523680001497268,-0.0004124999977648,-0.0008249999955296,-0.0016499999910593
2.6660703125,-0.0004529999860096,0.0102300001308321,0.0523639991879463,-0.0004124999977648,0.0016499999910593,0.0008249999955296
2.70051220703125,0.0044869999401271,0.0144670000299811,0.0619559995830059,-0.0004124999977648,0.0004124999977648,-0.0004124999977648
2.734954345703125,-0.000278999999864,-0.0068609998561441,0.0404100008308887,-0.0004124999977648,-0.0008249999955296,0.0008249999955296
2.769396484375,0.0089509999379515,-0.0063800001516938,0.0786819979548454,0.0008249999955296,-0.0008249999955296,-0.0004124999977648
2.803838623046875,-0.0078440001234412,0.0102880001068115,0.0571499988436698,0.0008249999955296,-0.0008249999955296,0.0008249999955296
2.8382802734375,-0.0004279999993741,0.0099109997972846,0.0643410012125969,0.0008249999955296,0.0004124999977648,0.0008249999955296
2.872722412109375,-0.003000000026077,-0.0089680003002285,0.0427969992160797,0.0008249999955296,-0.0008249999955296,-0.0004124999977648
2.90716455078125,-0.0028150000143796,-0.0014380000066012,0.0738859996199607,-0.0004124999977648,0.0016499999910593,-0.0004124999977648
2.941606689453125,-0.0052749998867511,0.0103190001100301,0.0427899993956089,-0.0004124999977648,-0.0008249999955296,-0.0004124999977648
2.976048583984375,-0.0027449999470263,0.0004579999949783,0.0475849993526935,-0.0004124999977648,0.0004124999977648,-0.0004124999977648
3.01049072265625,-0.0005450000171549,-0.0182869993150234,0.0379999987781047,-0.0004124999977648,-0.0008249999955296,0.0008249999955296
3.04493310546875,-0.0004049999988637,-0.0013650000328198,0.0523470006883144,-0.0004124999977648,0.0004124999977648,0.0008249999955296
3.079374755859375,-0.0003710000019054,0.0029289999511092,0.0260460004210472,0.0008249999955296,-0.0008249999955296,0.0008249999955296
3.113817138671875,-0.002691000001505,0.0028939999174326,0.0380100011825561,0.0008249999955296,-0.0008249999955296,0.0008249999955296
3.165480224609375,0.0043890001252293,0.0009850000496953,0.0355970002710819,0.0008249999955296,0.0016499999910593,-0.0004124999977648
3.199922119140625,-0.0075349998660385,0.0030839999672025,0.0571449995040893,-0.0004124999977648,-0.0008249999955296,0.0008249999955296
3.234364013671875,0.0041439998894929,0.0028999999631196,0.0116940001025795,-0.0004124999977648,0.0004124999977648,-0.0004124999977648
3.26880615234375,0.0043509998358786,-0.0089290002360939,0.0643279999494552,-0.0004124999977648,0.0004124999977648,0.0008249999955296
3.303248291015625,0.0045059998519718,-0.0037559999618679,0.0332019999623298,-0.0004124999977648,-0.0008249999955296,-0.0004124999977648
3.337690673828125,-0.0124289998784661,0.0150020001456141,0.0715069994330406,0.0008249999955296,-0.0008249999955296,-0.0004124999977648
3.372132568359375,0.004220999777317,-0.0019109999993816,0.0404089987277984,0.0008249999955296,0.0004124999977648,0.0008249999955296
3.406574462890625,-0.0005540000274777,-0.0039570000953972,0.0691080018877983,0.0008249999955296,-0.0008249999955296,-0.0004124999977648
3.441016845703125,-0.0052979998290538,0.0058470000512897,0.0355970002710819,-0.0004124999977648,-0.0008249999955296,-0.0004124999977648
3.475458740234375,-0.0052229999564588,0.0032289999071508,0.0619269981980323,0.0008249999955296,-0.0008249999955296,-0.0004124999977648
3.509900634765625,-0.0051870001479983,-0.0061300001107156,0.0355940014123916,-0.0004124999977648,-0.0008249999955296,-0.0004124999977648
3.544343017578125,-0.0026940000243484,0.0083999997004866,0.0499420017004013,-0.0004124999977648,0.0016499999910593,-0.0004124999977648
3.578784912109375,-0.0026360000483691,0.0058410000056028,0.0355909988284111,-0.0016499999910593,-0.0008249999955296,-0.0004124999977648
3.61322705078125,-0.0051710000261664,0.0055120000615715,0.049966000020504,0.0008249999955296,0.0004124999977648,0.0008249999955296
3.66489013671875,-0.0072710001841187,-0.0111279999837279,0.0499569997191429,-0.0004124999977648,0.0004124999977648,-0.0004124999977648
3.69933203125,-0.0044749998487532,0.0173959992825984,0.0355990007519722,-0.0004124999977648,-0.0008249999955296,-0.0004124999977648
3.733774169921875,0.002553999889642,0.0053050001151859,0.0619289986789226,-0.0004124999977648,0.0004124999977648,-0.0016499999910593
3.768216064453125,0.0029529999010264,0.0005900000105611,0.0403829999268054,-0.0004124999977648,0.0004124999977648,-0.0004124999977648
3.802658203125,0.0051730000413954,0.000707000028342,0.0643099993467331,-0.0004124999977648,-0.0008249999955296,0.0008249999955296
3.8371005859375,0.0052729998715221,0.012699999846518,0.0595210008323192,-0.0016499999910593,0.0016499999910593,0.0008249999955296
3.87154248046875,-0.0040310001932084,0.0054460000246763,0.0499459989368915,-0.0004124999977648,0.0004124999977648,0.0008249999955296
3.905984375,-0.010955000296235,0.0052319997921586,0.0475590005517005,0.0008249999955296,0.0004124999977648,-0.0004124999977648
3.9404267578125,0.005824000108987,-0.0041680000722408,0.0547300018370151,0.0008249999955296,-0.0019249999895691,-0.0004124999977648
3.97486865234375,0.0081989997997879,0.0027900000568479,0.0403829999268054,-0.0004124999977648,0.0004124999977648,-0.0004124999977648
4.009310546875,0.0036440000403672,0.00504200020805,0.0403839983046054,-0.0004124999977648,-0.0008249999955296,0.0008249999955296
4.0437529296875,-0.0034449999220669,-0.0020550000481307,0.0786650031805038,-0.0004124999977648,-0.0008249999955296,-0.0004124999977648
4.07819482421875,-0.001295999973081,0.0026730000972747,0.0499569997191429,0.0008249999955296,-0.0008249999955296,-0.0004124999977648
4.11263720703125,-0.0106009999290108,0.0095650004222989,0.0523569993674755,-0.0004124999977648,0.0004124999977648,0.0008249999955296
4.147078857421875,-0.0059790001250803,-0.0002280000044265,0.0619410015642643,0.0008249999955296,-0.0008249999955296,-0.0004124999977648
4.181520751953125,-0.0012489999644458,-0.002553999889642,0.0523680001497268,-0.0004124999977648,-0.0008249999955296,-0.0004124999977648
4.215963134765625,-0.0014309999532997,0.0070620002225041,0.0404050014913082,-0.0004124999977648,-0.0008249999955296,-0.0004124999977648
4.250405029296875,-0.001499000005424,0.00202800007537,0.0619530007243156,0.0020624999888241,0.0004124999977648,-0.0004124999977648
4.284847412109375,-0.001388999982737,-0.0026899999938905,0.0715190023183822,-0.0004124999977648,-0.0008249999955296,-0.0004124999977648
4.319289306640625,0.0010750000365078,-0.0072090001776814,0.0451849997043609,-0.0004124999977648,0.0004124999977648,-0.0004124999977648
4.353731201171875,-0.0035029998980462,0.0187369994819164,0.0499829985201358,0.0008249999955296,-0.0008249999955296,-0.0004124999977648
4.388173583984375,0.0128499995917081,0.0019420000026002,0.0476009994745254,0.0008249999955296,0.0004124999977648,-0.0004124999977648
4.422615478515625,0.0057689999230206,-0.0003229999856557,0.0356279984116554,0.0008249999955296,-0.0019249999895691,-0.0004124999977648
4.4570576171875,0.0032029999420046,-0.009689999744296,0.0715159997344017,-0.0004124999977648,-0.0008249999955296,-0.0004124999977648
4.491499755859375,0.0010400000028312,0.0117220003157854,0.047589998692274,-0.0004124999977648,-0.0008249999955296,-0.0004124999977648
4.525941650390625,-0.0015729999868199,0.006792000029236,0.0380249992012977,-0.0004124999977648,-0.0008249999955296,-0.0004124999977648
4.5603837890625,-0.0089389998465776,0.0046899998560547,0.0404100008308887,-0.0004124999977648,0.0004124999977648,-0.0004124999977648
4.59482568359375,-0.0040090000256896,-0.00697400001809,0.0547519996762275,-0.0016499999910593,0.0004124999977648,0.0008249999955296
4.629267822265625,-0.0038409999106079,0.0048870001919567,0.0619329996407032,0.0008249999955296,-0.0008249999955296,-0.0004124999977648
4.6637099609375,-0.0087329996749758,0.0047780000604689,0.0595469996333122,0.0008249999955296,-0.0019249999895691,0.0008249999955296
4.698152099609375,0.0034209999721497,-0.0024619998876005,0.0715090036392211,0.0008249999955296,-0.0019249999895691,-0.0004124999977648
4.73259375,0.0081989997997879,-0.0002629999944474,0.0547679997980594,-0.0004124999977648,0.0004124999977648,-0.0004124999977648
4.7670361328125,-0.0061369999311864,0.0021669999696314,0.078695997595787,-0.0004124999977648,0.0004124999977648,0.0008249999955296
4.801478271484375,0.000990999978967,0.0021490000654011,0.0715179964900016,0.0008249999955296,-0.0008249999955296,-0.0004124999977648
4.83592041015625,-0.0014230000087991,-0.0098160002380609,0.0595550015568733,-0.0004124999977648,-0.0008249999955296,-0.0004124999977648
4.8703623046875,0.000752999971155,0.0041539999656379,0.0165030006319284,-0.0004124999977648,0.0016499999910593,-0.0004124999977648
4.904804443359375,-0.0015780000248923,-0.0125329997390508,0.0547839999198913,-0.0004124999977648,-0.0008249999955296,-0.0016499999910593
4.93924658203125,0.0030779999215155,-0.0099670002236962,0.0619589984416961,0.0008249999955296,-0.0008249999955296,0.0008249999955296
4.9736884765625,-0.0064679998904466,0.0046270000748336,0.0643410012125969,-0.0004124999977648,-0.0008249999955296,-0.0004124999977648
5.008130859375,0.0126710003241896,0.0044550001621246,0.0619550012052059,-0.0004124999977648,0.0004124999977648,0.0008249999955296
5.04257275390625,-0.0062620001845061,0.0024540000595152,0.0715060010552406,-0.0016499999910593,-0.0019249999895691,0.0008249999955296
5.0770146484375,-0.0038570000324398,0.0141550004482269,0.0643379986286163,0.0008249999955296,-0.0008249999955296,0.0008249999955296
5.111456787109375,-0.0015559999737888,0.0048630000092089,0.0691139996051788,0.0020624999888241,-0.0008249999955296,0.0008249999955296
5.14589892578125,0.0008510000188834,0.0071600000374019,0.0762960016727447,-0.0004124999977648,-0.0019249999895691,0.0008249999955296
5.180340576171875,-0.0016039999900385,-0.0022589999716728,0.0762920007109642,0.0020624999888241,-0.0019249999895691,-0.0004124999977648
5.214782958984375,0.0007699999841861,-0.0044229999184608,0.0571390017867088,0.0008249999955296,0.0004124999977648,0.0008249999955296
5.249224853515625,0.0033340000081807,0.005210000090301,0.0332029983401298,-0.0004124999977648,0.0004124999977648,-0.0004124999977648
5.283667236328125,-0.0038980001118034,-0.0020830000285059,0.0547449998557567,0.0008249999955296,-0.0008249999955296,-0.0004124999977648
5.318109130859375,-0.0039029999170452,0.0023560000117868,0.0212590005248785,0.0008249999955296,0.0004124999977648,-0.0004124999977648
5.352551025390625,0.0057720001786947,0.0073049999773502,0.0523580014705657,0.0008249999955296,0.0004124999977648,-0.0004124999977648
5.386993408203125,0.000651000009384,-0.0070259999483823,0.0762929990887641,0.0008249999955296,-0.0008249999955296,-0.0004124999977648
5.421435302734375,0.0003809999907389,0.0050760000012815,0.033220000565052,-0.0004124999977648,0.0004124999977648,-0.0004124999977648
5.455877197265625,0.0006719999946653,0.0102390004321932,0.0571280010044574,-0.0004124999977648,0.0004124999977648,0.0008249999955296
5.4903193359375,-0.0016969999996945,-0.0039610001258552,0.0882269963622093,0.0008249999955296,-0.0019249999895691,0.0008249999955296
5.541982421875,-0.0014319999609142,0.0054700002074241,0.0738710016012191,-0.0004124999977648,-0.0008249999955296,-0.0004124999977648
5.576424560546875,-0.0016479999758303,-0.0040649999864399,0.0882309973239898,0.0008249999955296,-0.0008249999955296,-0.0004124999977648
5.61086669921875,0.0081620002165436,0.001094999955967,0.0116370003670454,-0.0016499999910593,0.0004124999977648,0.0008249999955296
5.64530859375,-0.0443900004029274,0.0218359995633363,0.1456709951162338,0.004537499975413,-0.0043999999761581,-0.0004124999977648
5.679750732421875,0.0171300005167722,0.0115649998188018,-0.2179459929466247,-0.0064624999649822,0.0114124994724988,-0.0027499999850988
5.71419287109375,0.0262529999017715,-0.0900930017232894,0.0211929995566606,-0.0004124999977648,-0.0031624999828636,-0.0004124999977648
5.748634765625,0.1260579973459243,-0.0222249999642372,-0.0840710029006004,-0.0004124999977648,0.0053624999709427,0.0008249999955296
5.7830771484375,0.0579699985682964,0.0388000011444091,0.0333020016551017,0.0020624999888241,-0.0031624999828636,0.0057749999687075
5.81751904296875,-0.0263689998537302,-0.0173080004751682,0.0453240014612674,0.0008249999955296,-0.0008249999955296,0.0032999999821186
5.8519609375,-0.1215279996395111,-0.0249230004847049,0.0882520005106926,0.0008249999955296,0.0004124999977648,0.0032999999821186
5.886403076171875,-0.1028459966182708,0.1250299960374832,0.0476289987564086,0.0008249999955296,0.0004124999977648,-0.0027499999850988
5.92084521484375,0.019463999196887,0.0223980005830526,0.0405390001833438,-0.0004124999977648,0.0004124999977648,-0.0016499999910593
5.955287353515625,0.0241390001028776,-0.0583279989659786,0.026155000552535,0.0008249999955296,-0.0008249999955296,-0.0016499999910593
5.989729248046875,0.0513300001621246,-0.0792789980769157,0.0954480022192001,0.0008249999955296,0.0004124999977648,-0.0004124999977648
6.024171142578125,-6.29999994998e-05,0.0641020014882087,0.0212990008294582,0.0008249999955296,-0.0008249999955296,0.0008249999955296
6.058613525390625,-0.018605999648571,0.0307759996503591,0.0477069988846778,0.0008249999955296,-0.0008249999955296,-0.0004124999977648
6.093055419921875,-0.013238999992609,-0.0544780008494854,0.0668020024895668,0.0008249999955296,0.0004124999977648,0.0008249999955296
6.12749755859375,0.0295429993420839,-0.0384720005095005,0.0523749999701976,0.0008249999955296,0.0016499999910593,-0.0004124999977648
6.161939697265625,0.0095530003309249,0.0474309995770454,0.0356520004570484,-0.0004124999977648,-0.0008249999955296,0.0008249999955296
6.196381591796875,-0.0168459992855787,0.0221280008554458,0.0285349991172552,-0.0004124999977648,0.0004124999977648,0.0008249999955296
6.23082373046875,-0.0187829993665218,-0.0413599982857704,0.0476199984550476,-0.0004124999977648,0.0004124999977648,0.0008249999955296
6.265265869140625,0.0102829998359084,-0.0026680000592023,0.0667399987578392,0.0008249999955296,0.0004124999977648,-0.0004124999977648
6.299707763671875,0.0121339997276663,0.0369880013167858,0.0165449995547533,-0.0004124999977648,-0.0008249999955296,-0.0004124999977648
6.334150146484375,-0.023166999220848,0.0235580001026392,0.0524899996817112,0.0008249999955296,0.0004124999977648,-0.0004124999977648
6.368592041015625,0.0011670000385493,-0.0261870007961988,0.0716039985418319,0.0008249999955296,0.0004124999977648,-0.0004124999977648
6.403034423828125,0.0084779998287558,0.000557999999728,0.0524390004575252,0.0008249999955296,0.0004124999977648,-0.0004124999977648
6.437476318359375,0.0174100007861852,0.007424000184983,0.0524640008807182,-0.0004124999977648,0.0004124999977648,0.0008249999955296
6.47191845703125,-0.0203779991716146,0.0189939998090267,0.0596520006656646,-0.0004124999977648,-0.0008249999955296,-0.0004124999977648
6.5063603515625,0.0013079999480396,-0.0260649994015693,0.0596310012042522,-0.0004124999977648,-0.0008249999955296,-0.0004124999977648
6.540802490234375,0.0059790001250803,0.0051799998618662,0.0500539988279342,0.0020624999888241,0.0004124999977648,0.0008249999955296
6.575244384765625,0.0054480000399053,0.0167909990996122,0.06683100014925,0.0008249999955296,-0.0008249999955296,-0.0004124999977648
6.6096865234375,-0.0157789997756481,-0.0025019999593496,0.0620470009744167,-0.0004124999977648,0.0004124999977648,0.0008249999955296
6.64412841796875,0.0079830000177025,-0.0120010003447532,0.0476889982819557,-0.0004124999977648,-0.0008249999955296,-0.0004124999977648
6.6785703125,-0.0043040001764893,0.0190929993987083,0.0405189990997314,-0.0004124999977648,-0.0008249999955296,-0.0004124999977648
6.7130126953125,0.0030429998878389,0.0162330009043216,0.0189980007708072,-0.0016499999910593,0.0004124999977648,-0.0004124999977648
6.74745458984375,-0.0017069999594241,-0.0030900000128895,0.0764359980821609,-0.0004124999977648,-0.0019249999895691,-0.0004124999977648
6.781896728515625,-0.0018169999821111,-0.009995000436902,0.0477109998464584,0.0008249999955296,0.0004124999977648,-0.0004124999977648
6.8163388671875,-0.0040980000048875,-0.0005729999975301,0.0333580002188682,0.0008249999955296,0.0004124999977648,0.0008249999955296
6.85078076171875,-0.00378999998793,0.0109409997239708,0.0573019981384277,-0.0004124999977648,0.0004124999977648,-0.0004124999977648
6.885222900390625,0.0083999997004866,-0.0174989998340606,0.0261760000139474,-0.0004124999977648,0.0016499999910593,-0.0004124999977648
6.9196650390625,0.0037140001077204,-0.0052829999476671,0.059663999825716,0.0008249999955296,-0.0008249999955296,0.0008249999955296
6.95410693359375,0.0036410000175237,0.0044800001196563,0.0381200015544891,-0.0016499999910593,0.0004124999977648,-0.0004124999977648
6.988549072265625,0.001403999980539,0.0134330000728368,0.0620750002562999,0.0008249999955296,-0.0008249999955296,-0.0004124999977648
7.022990966796875,0.0086190002039074,-0.0053340001031756,0.0572709999978542,-0.0004124999977648,-0.0008249999955296,0.0008249999955296
7.05743310546875,0.0014029999729245,0.0115799997001886,0.0620499998331069,0.0008249999955296,-0.0008249999955296,-0.0004124999977648
7.091875244140625,-0.0029869999270886,0.0089910002425313,0.0524800010025501,-0.0004124999977648,-0.0008249999955296,-0.0004124999977648
7.126317138671875,0.0017569999909028,-0.0077120000496506,0.0764070004224777,-0.0004124999977648,0.0004124999977648,0.0008249999955296
7.160759521484375,0.0136719997972249,-0.0121250003576278,0.042892999947071,0.0008249999955296,0.0004124999977648,-0.0016499999910593
7.195201416015625,-0.0007510000141337,0.0070409998297691,0.0572500005364418,0.0008249999955296,0.0004124999977648,0.0008249999955296
7.2296435546875,-0.009995000436902,0.0042019998654723,0.0692259967327117,-0.0016499999910593,0.0004124999977648,-0.0004124999977648
7.26408544921875,0.0086559997871518,-0.0029569999314844,0.0740209966897964,0.0008249999955296,-0.0008249999955296,0.0008249999955296
7.29852734375,-0.0081280004233121,-0.0098160002380609,0.0596500001847744,-0.0004124999977648,-0.0008249999955296,0.0008249999955296
7.3329697265625,-0.0053659998811781,0.006887000054121,0.0859659984707832,-0.0004124999977648,-0.0008249999955296,0.0008249999955296
7.367411376953125,0.01394800003618,0.0161789990961551,0.0452979989349842,-0.0004124999977648,0.0004124999977648,-0.0004124999977648
7.401853515625,0.0085209999233484,-0.0006960000027902,0.0644569993019104,-0.0004124999977648,-0.0019249999895691,0.0008249999955296
7.436295654296875,-0.0057640001177787,0.0042550000362098,0.0476979985833168,0.0008249999955296,-0.0008249999955296,-0.0004124999977648
7.47073779296875,0.0042159999720752,0.0042659998871386,0.0452959984540939,-0.0004124999977648,0.0004124999977648,-0.0004124999977648
7.505179931640625,0.0086850002408027,0.0019219999667257,0.0572669990360736,0.0008249999955296,-0.0008249999955296,-0.0004124999977648
7.5396220703125,0.0066419998183846,-0.0005649999948218,0.0476920008659362,0.0008249999955296,0.0004124999977648,0.0008249999955296
7.57406396484375,-0.0120590003207325,0.0018230000277981,0.0787909999489784,0.0008249999955296,-0.0008249999955296,0.0008249999955296
7.608506103515625,0.0189260002225637,-0.0002540000132285,0.0309209991246461,0.0008249999955296,0.0004124999977648,-0.0004124999977648
7.6429482421875,0.0019890000112354,0.004579999949783,0.0548529997467994,0.0008249999955296,-0.0008249999955296,-0.0004124999977648
7.677390380859375,-0.0097930002957582,-0.0118810003623366,0.0620150007307529,-0.0004124999977648,0.0004124999977648,-0.0004124999977648
7.711832275390625,0.0072380001656711,0.0005770000279881,0.0380569994449615,-0.0016499999910593,-0.0008249999955296,-0.0004124999977648
7.746274169921875,0.0119550004601478,0.0076850000768899,0.0548130013048648,-0.0004124999977648,-0.0008249999955296,0.0008249999955296
7.780716552734375,-0.0046439999714493,0.0148759996518492,0.0572029985487461,-0.0016499999910593,0.0004124999977648,-0.0016499999910593
7.815158447265625,-0.0019920000340789,0.0031910000834614,0.045219998806715,-0.0004124999977648,0.0004124999977648,-0.0004124999977648
7.849600341796875,0.0122010000050067,-0.0061889998614788,0.0571799986064434,-0.0004124999977648,-0.0008249999955296,-0.0004124999977648
7.88404248046875,0.0026269999798387,0.0103439996019005,0.0619760006666183,0.0008249999955296,0.0004124999977648,0.0008249999955296
7.918484375,-0.0161460004746913,-0.0016969999996945,0.0643649995326995,0.0008249999955296,0.0004124999977648,-0.0004124999977648
7.9529267578125,0.0054839998483657,-0.0108690001070499,0.0547740012407302,-0.0004124999977648,-0.0008249999955296,-0.0004124999977648
7.987368408203125,0.0097369998693466,0.0037229999434202,0.057167999446392,-0.0004124999977648,-0.0008249999955296,0.0008249999955296
8.021810546875,-0.018648000434041,0.0056480001658201,0.0523939989507198,-0.0004124999977648,0.0004124999977648,-0.0004124999977648
8.056252685546875,0.003089000005275,-0.0013879999751225,0.0499919988214969,-0.0004124999977648,-0.0008249999955296,0.0008249999955296
8.090694580078125,0.0194140002131462,0.0105140004307031,0.0284659992903471,-0.0016499999910593,-0.0008249999955296,0.0008249999955296
8.125136474609375,-0.013829999603331,0.0054640001617372,0.0595810003578662,-0.0004124999977648,-0.0008249999955296,0.0008249999955296
8.159578857421875,0.0031880000606179,0.0052959998138248,0.0476190000772476,-0.0004124999977648,0.0004124999977648,-0.0004124999977648
8.1940205078125,0.0193399991840124,-0.0112549997866153,0.0619789995253086,0.0008249999955296,-0.0008249999955296,0.0008249999955296
8.228462890625,-6.29999994998e-05,0.0053209997713565,0.038061998784542,-0.0004124999977648,-0.0008249999955296,0.0008249999955296
8.26290478515625,-0.0092709995806217,-0.0017119999974966,0.0667620003223419,0.0008249999955296,0.0004124999977648,-0.0004124999977648
8.2973466796875,0.0214479994028806,0.0081000002101063,0.0308669991791248,-0.0004124999977648,0.0004124999977648,-0.0004124999977648
8.3317890625,-0.0026320000179111,-0.0083290003240108,0.0571790002286434,-0.0004124999977648,0.0004124999977648,0.0008249999955296
8.36623095703125,-0.0044630002230405,0.0108300000429153,0.069130003452301,-0.0004124999977648,0.0004124999977648,-0.0004124999977648
8.4006728515625,0.0121370004490017,0.0083469999954104,0.0547799989581108,0.0008249999955296,0.0004124999977648,-0.0004124999977648
8.435114990234375,0.0072260000742971,-0.0009810000192373,0.0523790009319782,-0.0004124999977648,0.0004124999977648,0.0008249999955296
8.46955712890625,-0.002377999946475,-0.0058450000360608,0.0475980006158351,-0.0004124999977648,0.0004124999977648,-0.0004124999977648
8.503999267578125,0.0050860000774264,0.0037360000424087,0.0332330018281936,-0.0004124999977648,0.0004124999977648,0.0008249999955296
8.538441162109375,0.0167689993977546,0.0014629999641329,0.0571639984846115,-0.0004124999977648,0.0004124999977648,-0.0004124999977648
8.57288330078125,-0.0024470000062137,0.0037650000303983,0.0356319993734359,-0.0004124999977648,-0.0008249999955296,-0.0004124999977648
8.607325439453126,0.0262490008026361,-0.0083170002326369,0.1792130023241043,0.011824999935925,0.0346499979496002,-0.0004124999977648
8.641767333984374,0.0052519999444484,0.0272410009056329,0.4064899981021881,-0.0028874999843537,-0.0141624994575977,-0.0004124999977648
8.676209716796874,-0.005460999906063,0.0068899998441338,-0.0098390001803636,-0.0101749999448657,-0.0288750007748603,0.0008249999955296
