seconds_elapsed,accel_x,accel_y,accel_z,gyro_x,gyro_y,gyro_z
0.21670361328125,-0.2465000003576278,-0.0343999974429607,-0.8532999753952026,-0.6011611819267273,0.2613630592823028,-0.0480489134788513
0.236556640625,-0.2465000003576278,-0.0343999974429607,-0.8532999753952026,-0.6011611819267273,0.2613630592823028,-0.0480489134788513
0.256408203125,0.4490000009536743,-0.4283999800682068,-1.750499963760376,-0.6011611819267273,0.2613630592823028,-0.0480489134788513
0.27626123046875,0.4531999826431274,-0.3163000047206878,0.7475999593734741,-0.6011611819267273,0.2613630592823028,-0.0480489134788513
0.296114501953125,0.7712000012397766,0.175599992275238,2.844399929046631,-0.6011611819267273,0.2613630592823028,-0.0480489134788513
0.315966064453125,1.1527999639511108,0.5191999673843384,2.8513998985290527,-0.6011611819267273,0.2613630592823028,-0.0480489134788513
0.335819091796875,1.7242000102996826,0.8169999718666077,1.7771999835968018,-0.6011611819267273,0.2613630592823028,-0.0480489134788513
0.355672119140625,1.692199945449829,1.4639999866485596,2.256199836730957,-0.6011611819267273,0.2613630592823028,-0.0480489134788513
0.37552392578125,2.0083999633789062,1.327899932861328,3.205899953842163,-0.6427000164985657,0.2674717009067535,0.1132020577788353
0.395376953125,2.315000057220459,1.2316999435424805,3.705600023269653,-0.4473977088928222,0.1711295396089553,0.0989078059792518
0.41522998046875,2.158599853515625,1.1280999183654783,2.501999855041504,-0.1817062348127365,0.0436855927109718,0.1385267823934555
0.435083251953125,2.2488999366760254,0.9612999558448792,0.8959999680519104,-0.093881256878376,-0.0324805788695812,0.1306902468204498
0.454934814453125,2.0397000312805176,0.6940999627113342,0.0815000012516975,-0.0867603197693824,0.0283441469073295,0.0776671543717384
0.4747880859375,1.4488999843597412,0.4601999819278717,-0.0663999989628791,-0.0463908500969409,0.1575334221124649,0.0238586515188217
0.49464111328125,0.403899997472763,0.6381999850273132,0.2739000022411346,0.0266860835254192,0.1809208244085312,0.0957662165164947
0.514492431640625,0.3131999969482422,0.313400000333786,-0.1704999953508377,0.0369137153029441,0.0494975373148918,0.2674368023872375
0.534345947265625,0.6696999669075012,-0.4520999789237976,-0.6953999996185303,-0.050492376089096,-0.0359537824988365,0.2935469150543213
0.554198974609375,0.7935999631881714,-0.6220999956130981,-0.2355999946594238,-0.0755902081727981,-0.0352207459509372,0.1570970863103866
0.574050537109375,0.4582999944686889,-0.6714000105857849,0.064300000667572,0.0597251653671264,-0.0254294462502002,0.0643851980566978
0.593903564453125,0.1833999902009964,-0.6704999804496765,-0.6344000101089478,0.1753357797861099,0.0509636141359806,-0.0167726147919893
0.613756591796875,-0.2917999923229217,-0.4415999948978424,-0.7653999924659729,0.1428377479314804,0.1293114423751831,-0.0333183370530605
0.6336083984375,-0.5803999900817871,-0.4045999944210052,-0.3102999925613403,0.0525169558823108,0.1271646916866302,0.0187273826450109
0.65346142578125,-0.4426999986171722,-0.6132000088691711,0.0418999977409839,-0.0168075207620859,0.0436855927109718,0.0689405053853988
0.673314453125,-0.3389999866485595,-0.8497999906539917,0.250900000333786,-0.0325852967798709,0.0308574214577674,0.0484328866004943
0.69316748046875,-0.5827999711036682,-0.875499963760376,0.4958999752998352,-0.0191986225545406,0.0491833798587322,0.0241728108376264
0.713019287109375,-0.6746999621391296,-0.7231000065803528,0.6607999801635742,0.0085695665329694,0.0394793488085269,0.0319046191871166
0.732872314453125,-0.5358999967575073,-0.7421000003814697,0.5507000088691711,0.0168249737471342,-0.0075223692692816,0.0479616485536098
0.752725341796875,-0.5781999826431274,-1.011699914932251,0.4298999905586242,-0.0014311700360849,-0.057840209454298,0.0203854460269212
0.772576904296875,-0.4916999936103821,-0.9271999597549438,0.2989999949932098,0.0070511302910745,-0.0773355364799499,-0.0536165162920951
0.79243017578125,-0.5464000105857849,-0.7785999774932861,0.0537000000476837,0.0544019117951393,-0.0540528483688831,-0.1213527396321296
0.812283203125,-0.723800003528595,-0.5173999667167664,-0.244499996304512,0.0854513198137283,-0.0207519643008708,-0.1639736890792846
0.832134765625,-1.0399999618530271,-0.371099978685379,-0.5286999940872192,0.0627445876598358,0.0280474405735731,-0.1530479192733764
0.85198779296875,-1.0127999782562256,-0.3139999806880951,-0.5078999996185303,-0.010681414976716,0.0289375595748424,-0.1190663576126098
0.871841064453125,-0.770799994468689,-0.2166999876499176,-0.3616999983787536,-0.0732689201831817,0.025743605569005,-0.1017701476812362
0.891694091796875,-0.5309999585151672,-0.0903999954462051,-0.2370999902486801,-0.1051037237048149,0.0622558929026126,-0.107110857963562
0.911545654296875,-0.5852000117301941,-0.0460000000894069,0.2500999867916107,-0.0923453718423843,0.1459444314241409,-0.1130449771881103
0.931398681640625,-0.6740999817848206,-0.0692999958992004,0.7594999670982361,-0.0250978339463472,0.1315280050039291,-0.1126086413860321
0.951250244140625,-0.6146000027656555,0.0702999979257583,0.536799967288971,0.0173311196267604,0.0864985138177871,-0.1108284071087837
0.971103515625,-0.5392999649047852,0.2280000001192093,0.5418999791145325,0.0150621915236115,0.0738099738955497,-0.0785049125552177
0.990956787109375,-0.450899988412857,0.0363999977707862,0.614300012588501,0.0404741838574409,0.0394095331430435,-0.0511381477117538
1.010809814453125,-0.4601999819278717,-0.0450999997556209,0.676099956035614,0.092048667371273,0.0466701053082942,-0.0763232484459877
1.0306611328125,-0.6144999861717224,0.0592000000178813,0.5048999786376953,0.1691922098398208,0.0523947849869728,-0.0601964071393013
1.0505146484375,-0.6674000024795532,0.0496999993920326,-0.005899999756366,0.1863138973712921,0.0194953270256519,-0.0024085543118417
1.07036767578125,-0.4904999732971191,-0.2082999944686889,-0.2812999784946441,0.1158724054694175,-0.0022863813210278,0.0460068807005882
1.09021923828125,-0.3995999991893768,-0.4025999903678894,0.0866999998688697,0.0853291451930999,0.0160046685487031,0.0519759058952331
1.110072265625,-0.4540999829769134,-0.5494999885559082,0.2669999897480011,0.1540951132774353,0.0064751715399324,0.0463908500969409
1.129925537109375,-0.4690999984741211,-0.4623000025749206,-0.2660999894142151,0.1818807572126388,-0.0158824957907199,0.0568628273904323
1.149777099609375,-0.3064999878406524,-0.4262000024318695,-0.8378999829292297,0.1117185279726982,-3.4906584915e-05,0.0849626287817955
1.169630126953125,-0.3660999834537506,-0.5899999737739563,-0.6769999861717224,0.0124965570867061,0.0215548165142536,0.106971226632595
1.189483154296875,-0.0364999994635582,-0.6554999947547913,-0.4610999822616577,-0.0469668097794055,0.0450993068516254,0.0946666598320007
1.20933642578125,0.0700000002980232,-0.5807999968528748,-0.1004000008106231,-0.0523773320019245,0.0801978781819343,0.0367740876972675
1.22918798828125,-0.0307000000029802,-0.4811999797821045,0.2798999845981598,-0.0175580121576786,0.0752585977315902,0.0048694685101509
1.249041015625,-0.0654999986290931,-0.555899977684021,0.1829999983310699,-0.0001919862115755,0.0484852455556392,-0.0322885923087596
1.268892578125,-0.1332999914884567,-0.4070999920368194,0.0958999991416931,-0.0079063419252634,0.0029670596122741,-0.0670380964875221
1.28874560546875,-0.2572000026702881,-0.1771000027656555,-0.0612999983131885,-0.0107686817646026,0.0177849046885967,-0.0755902081727981
1.308598876953125,-0.2106999903917312,-0.0635000020265579,-0.1202999949455261,-0.0098262038081884,0.0384146980941295,-0.0617672018706798
1.328450439453125,-0.23989999294281,-0.0781999975442886,-0.1296000033617019,-0.0169645994901657,0.049672070890665,-0.0490961112082004
1.348303466796875,-0.2175999879837036,-0.0912999957799911,0.1256999969482422,-0.0216246284544467,0.0046251225285232,-0.0450469478964805
1.368156494140625,-0.2133999913930893,0.0337999984622001,0.1052000001072883,-0.0029321531765162,-0.0179768912494182,-0.0461465045809745
1.38800830078125,-0.1636999994516372,0.1560000032186508,-0.0621999986469745,0.0066322511993348,0.0010297442786395,-0.0339641086757183
1.407861328125,-0.1004000008106231,0.0408999994397163,-0.1111999973654747,0.0091455252841115,0.0307003408670425,-0.0159697625786066
1.42771435546875,-0.0421999990940094,-0.0260999985039234,0.0859000012278556,0.0078888880088925,0.0389557480812072,-0.0423940457403659
1.4475673828125,-0.2166999876499176,0.0838999971747398,0.4794999957084656,0.0506319999694824,0.0350811183452606,-0.0689405053853988
1.467419189453125,-0.5963999629020691,0.2057999968528747,0.6001999974250793,0.1270774155855178,-0.0113097336143255,-0.0298451296985149
1.487272216796875,-0.6129999756813049,0.193800002336502,0.1146999970078468,0.1413542181253433,-0.0725882425904274,0.0461465045809745
1.50712548828125,-0.5160999894142151,-0.048599999397993,-0.3030000030994415,0.0909141972661018,-0.1251401007175445,0.106587253510952
1.526976806640625,-0.274399995803833,-0.2143999934196472,-0.4593999981880188,0.0459021590650081,-0.1199390292167663,0.1199739351868629
1.546830322265625,-0.2578999996185303,-0.2933999896049499,-0.3134999871253967,0.039043016731739,-0.0410326905548572,0.112067587673664
1.566683349609375,-0.3827999830245971,-0.3996999859809875,-0.0381999984383583,0.0646295398473739,-0.0266860835254192,0.1174082979559898
1.586536376953125,-0.2601000070571899,-0.5005999803543091,-0.3892000019550323,0.0500385910272598,-0.078260563313961,0.1226442828774452
1.606387939453125,-0.0105999996885657,-0.4811999797821045,-0.8108999729156494,-0.0367566347122192,-0.0901986137032508,0.1221381425857544
1.6262412109375,0.2746999859809875,-0.4451999962329864,-0.6875,-0.1364323943853378,-0.0530754625797271,0.1044928655028343
1.64609423828125,0.4296000003814697,-0.3798999786376953,-0.3612000048160553,-0.1678134053945541,-0.0042935097590088,0.0699702501296997
1.66594580078125,0.5157999992370605,-0.2879000008106231,0.0727999955415725,-0.1769763827323913,0.0158475898206233,0.0287106651812791
1.685798828125,0.5376999974250793,-0.3398999869823456,0.5266000032424927,-0.1609891653060913,-0.0347320511937141,-0.0123569313436746
1.705652099609375,0.4721999764442444,-0.2169999927282333,0.7443000078201294,-0.1262571215629577,-0.0854164138436317,-0.0930260494351387
1.725505126953125,0.2132999897003173,-0.0006999999750405,0.6678999662399292,-0.0549778714776039,-0.0971799343824386,-0.1356120854616165
1.745356689453125,0.0124999992549419,0.0945999994874,0.2703999876976013,-0.0260403119027614,-0.0980002358555793,-0.1395914256572723
1.765209716796875,-0.1779999881982803,0.066500000655651,0.1486999988555908,-0.062098816037178,-0.1031664088368415,-0.1419999897480011
1.785061279296875,-0.3788999915122986,0.142999991774559,0.4277999997138977,-0.067195177078247,-0.1065523475408554,-0.150709182024002
1.80491455078125,-0.5794999599456787,0.2593999803066253,0.6186000108718872,0.0024260077625513,-0.0878598764538765,-0.1343030780553817
1.824767578125,-0.66839998960495,0.2732999920845032,0.322299987077713,0.0573166124522686,-0.1017876043915748,-0.0920137614011764
1.84462060546875,-0.6038999557495117,0.0401000007987022,-0.2466999888420105,0.0162839218974113,-0.1221730485558509,-0.053284902125597
1.86447216796875,-0.5148000121116638,0.0586999990046024,-0.1017999947071075,-0.0301418360322713,-0.0932354852557182,-0.0704938471317291
1.884325439453125,-0.693399965763092,0.1450999975204467,0.1500999927520752,0.0072256629355251,-0.0409279726445674,-0.0554142035543918
1.904178466796875,-0.5877000093460083,0.096400000154972,-0.0167999994009733,0.0587652362883091,-0.0250629279762506,-0.0321140587329864
1.924030029296875,-0.4499000012874603,-0.0214999988675117,-0.2502000033855438,0.0453611053526401,-0.011257373727858,-0.0091804321855306
1.943883056640625,-0.3983999788761139,-0.1078999936580658,-0.2189999967813491,0.0104545224457979,-0.0246265958994627,-0.0151669112965464
1.963736328125,-0.2904999852180481,0.0082999998703598,-0.140299990773201,0.0097214840352535,0.0113620935007929,-0.0056723202578723
1.983589599609375,-0.1762000024318695,-0.0223999992012977,-0.0509999990463256,0.0114144533872604,0.03560471534729,0.014433872886002
2.00344091796875,-0.0285999998450279,-0.2106999903917312,0.1270999908447265,-0.0030019662808626,0.0305956210941076,0.0126187307760119
2.023294189453125,-0.0790999978780746,-0.2584999799728393,0.3730999827384949,0.0065798913128674,-0.0133517691865563,-0.016545720398426
2.0431474609375,-0.2250999957323074,-0.1307999938726425,0.2946999967098236,0.0483281649649143,-0.0471413433551788,-0.0084648467600345
2.0629990234375,0.0041999998502433,-0.0995000004768371,-0.1946999877691269,0.0437204986810684,-0.0444709882140159,0.0038920841179788
2.08285205078125,0.0762999951839447,-0.2048999965190887,-0.3215999901294708,0.0011693706037476,-0.0052708941511809,-0.0133343152701854
2.102705078125,-0.1278000026941299,-0.193800002336502,0.0410999990999698,-0.0048520155251026,0.001570796361193,-0.0260228589177131
2.122556640625,-0.1146999970078468,-0.1712999939918518,0.031199999153614,0.0060911988839507,-0.0434063374996185,-0.0014137167017906
2.142409912109375,0.1826999932527542,-0.161200001835823,-0.2049999982118606,-0.0254818070679903,-0.0513650402426719,-0.0100705493241548
2.162262939453125,0.1451999992132187,-0.1938999891281128,-0.0600999966263771,-0.0542099252343177,-0.0163537357002496,-0.0415039286017417
2.182114501953125,0.0368000008165836,-0.2396999895572662,0.2412000000476837,-0.0244520623236894,0.0072082099504768,-0.0744033828377723
2.201967529296875,-0.1149000003933906,-0.1237000003457069,0.2206999957561493,0.006998770404607,0.0014311700360849,-0.0992045179009437
2.22182080078125,-0.2078999876976013,0.0746999979019165,-0.0044999998062849,0.0021991147659718,-0.0162839218974113,-0.0881740301847457
2.24167236328125,-0.2946999967098236,0.1165999993681907,0.1028999984264373,-0.0277507342398166,-0.0259704999625682,-0.0469493567943573
2.261525390625,-0.0810000002384185,0.0357000008225441,0.2483999878168106,-0.0420449823141098,-0.043214350938797,-0.0389732010662555
2.28137841796875,-0.0768999978899955,0.0846999958157539,0.3634999990463257,-0.0075572757050395,-0.0555189214646816,-0.0624827854335308
2.301230224609375,-0.2115999907255172,0.2056999951601028,0.1756999939680099,0.0482758060097694,-0.0522900633513927,-0.0490262992680072
2.321083251953125,-0.1891999989748001,0.1389999985694885,-0.2746999859809875,0.0442440956830978,-0.0661479756236076,-0.0030019662808626
2.340936279296875,0.0640999972820282,-0.0260999985039234,-0.3137999773025512,-0.0127758104354143,-0.0559028945863246,0.0016057029133662
2.360787841796875,-0.0436999984085559,-0.0528999976813793,0.1061000004410743,-0.0198793001472949,-0.0244695153087377,-0.0283965077251195
2.38064111328125,-0.222800001502037,-0.0186999998986721,0.3500999808311462,0.0349065847694873,-0.0102974427863955,-0.0228638127446174
2.400494140625,-0.0758000016212463,-0.1127000004053115,0.0570000000298023,0.0406487174332141,-0.0290597323328256,0.0047996556386351
2.420345703125,0.0173000004142522,-0.3062999844551086,0.0674999952316284,0.0014137167017906,-0.0660781636834144,0.0010471974965184
2.44019873046875,0.0641999989748001,-0.3154000043869018,0.1444000005722046,-0.00692895706743,-0.0751364231109619,-0.0344353467226028
2.460052001953125,0.002600000007078,-0.2336999922990799,0.1422999948263168,0.0472984239459037,-0.0112399207428097,-0.079901173710823
2.479903564453125,-0.289900004863739,-0.0731000006198883,-0.0817999988794326,0.0845088437199592,0.0295658782124519,-0.0919613987207412
2.499756591796875,-0.5442000031471252,-0.0861999988555908,-0.2251999974250793,0.0559028945863246,0.0253247264772653,-0.0452214814722538
2.519609619140625,-0.6240000128746033,-0.143899992108345,-0.1832999885082245,-0.0022689281031489,-0.0374722182750701,0.0129852499812841
2.539461181640625,-0.3352999985218048,-0.0544999986886978,-0.2919999957084656,-0.053127821534872,-0.0415562875568866,0.0624478794634342
2.559314453125,-0.0395999997854232,-0.0644999966025352,-0.0986999943852424,-0.0541750192642211,0.0211708433926105,0.0697782635688781
2.579167724609375,-0.0068999999202787,-0.0744999945163726,0.1448999941349029,-0.0286583062261343,0.0666890293359756,0.066252700984478
2.599020751953125,-0.0243999995291233,-0.1968999952077865,0.2630999982357025,-0.014433872886002,0.035046212375164,0.0657290965318679
2.6188720703125,0.0497999973595142,-0.1454000025987625,0.2142999917268753,-0.0191637147217988,-0.0369835272431373,0.0780336707830429
2.6387255859375,0.2760999798774719,-0.0834999978542327,0.1832000017166137,-0.0392699092626571,-0.0573864243924617,0.0793775767087936
2.65857861328125,0.3409999907016754,-0.1550000011920929,0.2096999883651733,-0.028640853241086,-0.0336150415241718,0.05159193277359
2.67843017578125,0.2540999948978424,-0.2474000006914138,0.1781999915838241,0.0004014257283415,-0.0107337748631834,0.0031415927223861
2.698283203125,0.0848999992012977,-0.0991000011563301,0.0894999951124191,0.0207519643008708,0.0052708941511809,-0.0333183370530605
2.718136474609375,-0.2069999873638153,0.0165999997407197,0.0998999997973442,0.0239110104739666,-0.0241204500198364,-0.0172787588089704
2.737988037109375,-0.1714999973773956,0.0427000001072883,-0.2038999944925308,0.0016057029133662,-0.0734783634543418,0.0261101257055997
2.757841064453125,0.0196000002324581,-0.1533999890089035,-0.3330000042915344,-0.0547858849167823,-0.0599520578980445,0.0185877569019794
2.777694091796875,-0.0118999993428587,-0.1620000004768371,0.016499999910593,-0.0426209419965744,-0.0015882495790719,-0.033248521387577
2.79754736328125,-0.3437999784946441,-0.0148999998345971,0.1521999984979629,0.0225147474557161,0.040037851780653,-0.0485376045107841
2.81739892578125,-0.450899988412857,0.12950000166893,-0.0617999993264675,0.0301418360322713,0.028920104727149,-0.0028972465079277
2.837251953125,-0.3947999775409698,0.0164000000804662,-0.1678999960422516,-0.0494451783597469,0.0007504915702156,0.0497942417860031
2.857103515625,-0.0616999976336956,-0.092299997806549,0.1931999921798706,-0.0985063835978508,-0.0330739878118038,0.0644375532865524
2.87695654296875,0.1754999905824661,-0.181999996304512,0.3655000030994415,-0.0553443916141986,-0.0317824445664882,0.0298625826835632
2.896809814453125,0.2766000032424927,-0.1026000007987022,0.1960999965667724,0.0185877569019794,0.0069813169538974,-0.0347145982086658
2.916662841796875,-0.02449999935925,0.0322999991476535,-0.0188999995589256,0.0520457178354263,0.0495324432849884,-0.0595506355166435
2.936515869140625,-0.2379999905824661,0.1122999936342239,-0.045399997383356,0.0202807262539863,0.0264242850244045,-0.035046212375164
2.956367431640625,-0.2309999912977218,0.1191999986767768,-0.0342999994754791,-0.0230732522904872,-0.0139451809227466,0.0030368729494512
2.976220703125,0.0020999999251216,0.094200000166893,0.0331999994814395,-0.0435459651052951,-0.0028797932900488,0.0246265958994627
2.996073974609375,0.1186999976634979,-0.0056999996304512,0.2572000026702881,-0.0153414439409971,-0.0015882495790719,0.0128805302083492
3.01592529296875,0.245399996638298,-0.0616999976336956,0.2075999975204467,0.016702800989151,0.0129677960649132,-0.0152541771531105
3.0357783203125,-0.0064999996684491,-0.0054999999701976,0.2377999871969223,0.0471413433551788,0.0300022102892398,-0.0520806238055229
3.0556318359375,-0.2830999791622162,0.1238999962806701,0.1224999949336052,0.0595331788063049,0.0035604715812951,-0.0102799888700246
3.07548486328125,-0.1052000001072883,0.0832000002264976,-0.0810999944806099,0.0169995073229074,-0.0393048152327537,0.034784410148859
3.09533642578125,0.0724999979138374,-0.1070000007748603,0.016499999910593,-0.0187971964478492,-0.0560599751770496,0.0385717749595642
3.115189453125,0.1486999988555908,-0.260699987411499,0.1714999973773956,0.0166155342012643,-0.0275936555117368,-0.0049741882830858
3.135042724609375,0.0160999987274408,-0.1651999950408935,-0.0148999998345971,0.0728849470615387,0.0114493602886796,-0.0425860323011875
3.154894287109375,-0.1368999928236007,-0.0013999999500811,-0.2474999874830246,0.0567581057548522,0.020542524755001,-0.0312064867466688
3.174747314453125,-0.258899986743927,-0.0112999994307756,-0.1959999948740005,-0.0032114058267325,-0.0150447385385632,0.0077318083494901
3.194600341796875,-0.1633999943733215,-0.2064999938011169,0.0583999976515769,-0.0381878055632114,-0.0339291989803314,0.0166504401713609
3.2144521484375,-0.0914999991655349,-0.2085999995470047,0.1542999893426895,-0.0017802357906475,-0.0192684344947338,-0.011013027280569
3.23430517578125,-0.152999997138977,-0.0995000004768371,-0.1010999977588653,0.0278554540127515,0.0175580121576786,-0.0096342172473669
3.254158203125,-0.0898000001907348,-0.0648999959230423,-0.285999983549118,-1.74532924575e-05,0.0173136666417121,0.003159045940265
3.274009765625,-0.0074999998323619,-0.1330000013113021,-0.0993999987840652,-0.0526740364730358,-0.0073129297234117,0.0106639619916677
3.293863037109375,0.0401000007987022,-0.0734999999403953,0.123999997973442,-0.042778018862009,-0.0048171086236834,-0.0206821523606777
3.313714599609375,-0.0967999994754791,0.1021999940276146,0.1517999917268753,0.0097738439217209,0.0289550125598907,-0.0237539317458868
3.333569091796875,-0.2074999958276748,0.1794999986886978,-0.1118999943137168,0.0204378049820661,0.0446629747748374,0.0113620935007929
3.353420654296875,-0.2377999871969223,0.0185000002384185,-0.0511999987065792,-0.0435634180903434,0.0161617491394281,0.0504400134086608
3.373272216796875,-0.0689999982714653,-0.0132999997586011,0.2514999806880951,-0.0731292963027954,-0.0146956723183393,0.0578227564692497
3.393126953125,0.0047999997623264,-0.0290999989956617,0.4936999976634979,-0.0193382482975721,-0.0085346596315503,0.0435459651052951
3.412978515625,0.0315000005066394,-0.0653999969363212,0.1790999919176101,0.0397062413394451,-0.0110828410834074,0.0425162203609943
3.43283154296875,0.1752000004053115,-0.1618999987840652,-0.2806999981403351,0.0147829391062259,-0.0043982295319437,0.0295658782124519
3.4526845703125,0.114499993622303,-0.1159999966621398,-0.1625999957323074,-0.0338070280849933,0.0030368729494512,0.001082104165107
3.472536376953125,-0.0612999983131885,0.0181999988853931,0.1694999933242797,-0.0219911485910415,0.0283441469073295,0.0013613568153232
3.492389404296875,-0.0851999968290329,0.0520999990403652,0.2379999905824661,0.0016231562476605,0.0057595865800976,0.0315904580056667
3.512240966796875,0.0421999990940094,-0.0759999975562095,0.1106999963521957,-0.0160570293664932,-0.0217118952423334,0.0369137153029441
3.532093994140625,0.183799996972084,-0.2300999909639358,0.1193000003695488,-0.0270875096321105,-0.050387654453516,0.0161442961543798
3.571800537109375,0.0350999981164932,-0.0078999996185302,0.0187999997287988,0.0258308723568916,0.0279776286333799,-0.0601964071393013
3.591653564453125,-0.2515999972820282,0.1357000023126602,-0.0090999994426965,0.0254992600530385,0.0196698606014251,-0.0398458652198314
3.611505126953125,-0.2854000031948089,0.033900000154972,0.0018999999156221,-0.0097738439217209,-0.0142244333401322,-0.0082903141155838
3.6313564453125,-0.2383999973535537,0.045899998396635,0.0993999987840652,-0.0206297915428876,-0.0407185330986976,0.0116238929331302
3.6512099609375,0.0184000004082918,0.0201999992132186,-0.0394000001251697,-0.0153588969260454,-0.0241902638226747,0.0223751217126846
3.67106298828125,0.1503999978303909,0.0129999993368983,-0.0405000001192092,-0.0064751715399324,0.0030892328359186,0.0030194194987416
3.690916015625,-0.0449000000953674,-0.1130999997258186,-0.0111999996006488,-0.0020420351065695,0.0246440488845109,-0.0198793001472949
3.710767578125,-0.11769999563694,-0.0531999990344047,0.2048999965190887,0.0019547687843441,0.0282394271343946,-0.0233175978064537
3.730620849609375,-0.160300001502037,-0.0723999962210655,0.2545999884605407,-0.00027925267932,-0.017086774110794,0.0017278759041801
3.750473876953125,0.1013000011444091,-0.0916000008583068,0.1168999969959259,-0.0126187307760119,-0.0504574701189994,-0.0033684854861348
3.770325439453125,0.1112999990582466,-0.2356999963521957,-0.0120999999344348,0.0054628807120025,-0.0211359374225139,-0.0428652875125408
3.790178466796875,-0.0870999991893768,-0.0882999971508979,-0.1006999984383583,0.0438601225614547,0.0265115518122911,-0.0759567320346832
3.81003173828125,-0.3242000043392181,0.1110999956727027,-0.1771000027656555,0.0419926233589649,0.061016708612442,-0.0591666623950004
3.82988330078125,-0.4469999969005584,0.2220999896526336,-0.1252000033855438,-0.0015533430268988,0.0163362808525562,0.003071779385209
3.849736328125,-0.2468999922275543,0.0848999992012977,-0.0658999979496002,-0.0500560440123081,-0.0301941968500614,0.0627620369195938
3.86958935546875,0.1673000007867813,-0.1419999897480011,0.0002999999851454,-0.0528660230338573,-0.0172089468687772,0.0554665625095367
3.889442626953125,0.2505999803543091,-0.1427000015974044,0.1843999922275543,-0.0178721714764833,0.0342433601617813,0.0162839218974113
3.909294189453125,0.2075999975204467,-0.12950000166893,0.233499988913536,0.0160395763814449,0.0266511775553226,-0.0004014257283415
3.929147216796875,0.192900002002716,-0.1223999932408332,0.1266999989748001,0.0050090947188436,-0.0122522115707397,-0.0042062434367835
3.949000244140625,0.2196999937295913,-0.1815999895334243,0.1067999973893165,-0.0127059966325759,-0.0335975885391235,-0.0374198593199253
3.96885205078125,-0.060199998319149,-0.0797999948263168,0.1054999977350235,0.021031217649579,-0.0220609623938798,-0.0576307699084281
3.988705078125,-0.1213999986648559,0.0353999994695186,-0.188400000333786,0.0362679399549961,0.0067195175215601,-0.0290073715150356
4.00855810546875,-0.1287999898195266,0.0195000004023313,-0.2949000000953674,-0.0151494583114981,0.0028623400721699,0.004328416660428
4.02840966796875,-0.0204999987035989,-0.0557000003755092,0.0280999988317489,-0.074804812669754,-0.0247836746275424,0.0174881983548402
4.048262939453125,0.0720999985933303,-0.119899995625019,0.3486000001430511,-0.0411548651754856,-0.0435808710753917,-0.0054628807120025
4.0681162109375,0.0833999961614608,-0.0820999965071678,0.0911999940872192,0.0224449336528778,-0.0286757592111825,-0.0276634693145751
4.087967529296875,0.049100000411272,0.0024999999441206,-0.2617000043392181,0.0238062907010316,0.0200712867081165,-0.0408232510089874
4.107820556640625,-0.2006999999284744,0.048200000077486,-0.0153999999165534,-0.0178721714764833,0.0433365255594253,-0.0287630259990692
4.127673828125,-0.259799987077713,0.0427000001072883,0.3868999779224396,-0.0323060452938079,-0.0134041290730237,-0.0052010812796652
4.147527099609375,-0.1932999938726425,0.049100000411272,0.4541999995708465,0.0011519172694534,-0.0655720233917236,0.01284562330693
4.167378662109375,0.0390000008046627,0.0390000008046627,-0.0275999996811151,0.0267384443432092,-0.0553792975842952,0.0217293482273817
4.187231689453125,0.0277999993413686,-0.0644999966025352,-0.2730999886989593,0.0148003920912742,0.0087790060788393,0.0087440991774201
4.207084716796875,-0.0978999957442283,-0.0967999994754791,-0.0762999951839447,-0.006998770404607,0.0327074714004993,-0.0041189771145582
4.22693798828125,-0.2577999830245971,-0.0559000000357627,0.1790999919176101,-0.0104196155443787,0.0040666172280907,0.0158650428056716
4.24678955078125,-0.0513000003993511,-0.0736999958753585,0.0513000003993511,-0.0156556032598018,-0.0402298383414745,0.0428827404975891
4.266642578125,0.2337999939918518,-0.1202999949455261,-0.0284000001847744,-0.0143466060981154,-0.0254818070679903,0.0265813637524843
4.28649560546875,0.1887999922037124,-0.1863999962806701,0.0390000008046627,0.0043982295319437,0.0236841179430484,-0.0189368221908807
4.306347412109375,-0.0510999970138073,-0.0982000008225441,0.1278999894857406,0.0233525056391954,0.0322711393237113,-0.0345226116478443
4.326200439453125,-0.1710999906063079,0.0355999991297721,0.00179999996908,0.0127932634204626,0.01284562330693,-0.0077667152509093
4.346053466796875,-0.0700999945402145,0.0630000010132789,0.0318999998271465,-0.0270875096321105,-0.017086774110794,0.0291819050908088
4.365905029296875,0.1314999908208847,-0.0987999960780143,0.128600001335144,-0.0383274294435977,-0.0151320043951272,0.0291295442730188
4.38575830078125,0.0392999984323978,-0.1504999995231628,0.3524999916553497,-0.000977384392172,0.0016057029133662,-0.0022165682166814
4.405611328125,-0.0186999998986721,-0.1057999953627586,0.1635999977588653,0.0437204986810684,-0.0084648467600345,-0.0110828410834074
4.42546435546875,0.0190999992191791,0.0112999994307756,-0.1876999884843826,0.0330041758716106,-0.006422811653465,-0.0125663708895444
4.44531591796875,-0.0992999970912933,0.062399998307228,-0.2550999820232391,0.0062657319940626,-0.0020420351065695,-0.0047298423014581
4.465169189453125,-0.1876000016927719,0.0206000003963708,-0.2153999954462051,-0.0143291531130671,0.033405601978302,0.0090582584962248
4.485022216796875,-0.2105999886989593,0.061099998652935,0.0497999973595142,-0.0225496534258127,0.0392873622477054,0.0411199554800987
4.504873779296875,-0.0373999997973442,0.0339999981224536,0.1775999963283538,-0.0430223643779754,-0.0052010812796652,0.0743510276079177
4.524726806640625,0.3511999845504761,-0.0482999980449676,0.2644000053405761,-0.046774823218584,-0.0312413927167654,0.0598298870027065
4.544580322265625,0.3919000029563904,-0.1881999969482422,0.3798999786376953,0.0056374133564531,-0.0164759084582328,-0.0033510322682559
4.564431640625,0.1039999946951866,-0.1109999939799308,0.222800001502037,0.0778940469026565,0.0083950338885188,-0.0451865755021572
4.584284912109375,-0.1282999962568283,0.0315000005066394,-0.2939999997615814,0.0629889294505119,0.01284562330693,-0.0232826918363571
4.604137939453125,-0.0368999987840652,0.0196000002324581,-0.3111999928951263,-0.0279601737856864,-0.0114493602886796,0.0195302348583936
4.6239892578125,0.1265999972820282,-0.093199998140335,0.089599996805191,-0.0653625801205635,-0.0474555008113384,0.0278903618454933
4.6438427734375,0.2534999847412109,-0.2478999942541122,0.1843999922275543,-0.0173311196267604,-0.0368264466524124,-0.0243124365806579
4.66369580078125,-0.0274999998509883,-0.0282999984920024,-0.0129999993368983,0.0542448312044143,0.020542524755001,-0.0634078085422515
4.683548828125,-0.3155999779701233,0.2075999975204467,-0.3637999892234802,0.0396713353693485,0.0485550612211227,-0.0099483765661716
4.703400390625,-0.1783999949693679,0.1704999953508377,-0.2730999886989593,-0.0629365742206573,0.0082903141155838,0.0629714801907539
4.723253662109375,0.0074000000022351,-0.1325999945402145,0.1858000010251999,-0.1182809621095657,-0.0353778228163719,0.0664272308349609
4.743106689453125,0.1062999963760376,-0.160300001502037,0.5144999623298645,-0.0500385910272598,-0.0164933614432811,0.0242949835956096
4.762958251953125,0.0237999986857175,-0.1019999980926513,0.218299999833107,0.0392873622477054,0.0185353960841894,0.0011170107172802
4.782811279296875,-0.1684999912977218,0.0076999999582767,-0.0935999974608421,0.0295833311975002,0.0171042270958423,0.0022689281031489
4.80266455078125,-0.30239999294281,-0.0857999995350837,-0.0530999973416328,-0.0292342640459537,-0.0108559476211667,0.0233175978064537
4.82251611328125,-0.2264999896287918,-0.0608999989926815,0.0436000004410743,-0.0408756099641323,-0.022183135151863,0.0394444391131401
4.842369140625,-0.0061999997124075,-0.0929000005125999,0.0417999997735023,-0.0271922294050455,-0.0025481807533651,0.0392873622477054
4.862220703125,0.0019999998621642,-0.0685999989509582,0.0408999994397163,-0.0110653871670365,-0.0074525559321045,0.0296182371675968
4.88207373046875,-0.049100000411272,-0.0864999964833259,-0.3125999867916107,-0.0523947849869728,-0.0853116959333419,0.0513475872576236
4.901927001953125,0.217299997806549,0.0498999990522861,-0.3455999791622162,-0.1363102197647094,-0.0855734944343566,0.052569318562746
4.921780029296875,0.1500999927520752,0.0848999992012977,0.1580999940633773,-0.1391201913356781,-0.0418180897831916,0.0394444391131401
4.941631591796875,0.1307999938726425,0.0912999957799911,0.5058000087738037,-0.0685216262936592,-0.0104894284158945,0.0333183370530605
4.961484619140625,0.2942000031471252,-0.0332999974489212,0.4346999824047088,-0.0083077671006321,-0.0011868239380419,0.0023387412074953
4.981337890625,0.2248999923467636,0.0466999970376491,0.3951999843120575,0.0218689758330583,-0.0168249737471342,-0.0468097291886806
5.001189453125,-0.061499997973442,0.2493999898433685,0.2189999967813491,0.04359832406044,-0.0346273332834243,-0.0346447862684726
5.02104248046875,-0.253600001335144,0.2610999941825866,-0.1920999884605407,0.0041887899860739,-0.0575085990130901,0.0278205480426549
5.04089404296875,-0.0889999940991401,0.063400000333786,-0.1243999972939491,-0.0771086439490318,-0.0722217261791229,0.0729024037718772
5.060747314453125,0.0220999997109174,-0.0800999999046325,0.3129000067710876,-0.0641408488154411,-0.0743859335780143,0.0738448798656463
5.080600341796875,0.1228999942541122,-0.1673000007867813,0.2309999912977218,-0.0067195175215601,-0.0858352929353714,0.0474380478262901
5.10045361328125,-0.003000000026077,-0.2060000002384185,-0.0747999995946884,0.0326202027499675,-0.034505158662796,0.0180467050522565
5.120304931640625,-0.1670999974012375,-0.1731999963521957,-0.2214999943971634,0.0204727128148078,-0.0275412946939468,0.0176278259605169
5.140158447265625,-0.1433999985456466,-0.0693999975919723,-0.4567999839782715,-0.0204378049820661,-0.031433381140232,0.0317998975515365
5.160011474609375,0.0260999985039234,-0.1247999966144561,-0.438400000333786,-0.077562429010868,-0.0261450316756963,0.0575784109532833
5.17986279296875,0.0976999998092651,-0.2773000001907348,-0.11769999563694,-0.0857305750250816,0.01284562330693,0.0395142547786235
5.199716064453125,0.0694999992847442,-0.2513000071048736,0.2032999992370605,-0.0527089424431324,0.0146258594468235,0.0293738916516304
5.2195693359375,0.2575999796390533,-0.1726000010967254,0.1823000013828277,-0.0361981280148029,-0.0023736478760838,0.0124441972002387
5.2394208984375,0.2565000057220459,-0.1358999907970428,0.063400000333786,-0.0437903106212616,-0.0276285614818334,-0.0043633230961859
5.25927392578125,0.2900999784469604,-0.1269000023603439,0.0515999980270862,-0.0554665625095367,-0.0201760064810514,-0.0130201559513807
5.279126953125,0.2272999882698059,-0.1056999936699867,0.2161999940872192,-0.0527613013982772,-0.0085346596315503,-0.0424289554357528
5.298980224609375,0.1283999979496002,0.0330999977886676,0.3613999783992767,-0.0169296935200691,-0.0108908545225858,-0.0660083517432212
5.318831787109375,-0.048599999397993,0.2142999917268753,0.2821999788284302,0.0189891830086708,-0.0142942462116479,-0.0689405053853988
5.338684814453125,-0.1966999918222427,0.3197999894618988,0.0568999983370304,0.0232652388513088,-0.0524122379720211,-0.0250978339463472
5.358537841796875,-0.1473999917507171,0.2078999876976013,-0.1296000033617019,-0.0137881012633442,-0.0598473399877548,0.0
5.378389404296875,-0.1196999996900558,0.1612999886274337,-0.062399998307228,-0.0300894770771265,-0.0344877056777477,0.0100705493241548
5.39824267578125,-0.067900002002716,0.1177999973297119,0.0242999996989965,-0.0025481807533651,-0.0090233525261282,0.0150970984250307
5.418095703125,-0.0993999987840652,0.1079999953508377,0.1123999953269958,0.023719023913145,-0.0055676004849374,0.0174532923847436
5.437947265625,-0.1695999950170517,0.0145999994128942,-0.0339999981224536,0.0236143041402101,-0.0169296935200691,0.023719023913145
5.45780029296875,-0.1242999956011772,0.0192999988794326,-0.0727000012993812,0.0024085543118417,-0.0043982295319437,0.0443837232887744
5.477653564453125,0.0106999995186924,-0.0408999994397163,-0.092299997806549,-0.0149749247357249,0.0104894284158945,0.0533547140657901
5.497505126953125,-0.0180999990552663,-0.0782999992370605,0.093699999153614,-0.0274365749210119,0.025359634310007,0.050230573862791
5.517358154296875,-0.1223999932408332,-0.1523000001907348,0.3089999854564667,-0.0189717281609773,0.0090582584962248,0.0585557967424392
5.537211181640625,-0.033900000154972,-0.1886999905109405,0.2694000005722046,-0.0126710906624794,-0.0346273332834243,0.0670730024576187
5.557064697265625,0.1730999946594238,-0.2557999789714813,0.1507000029087066,-0.0029496063943952,-0.066113069653511,0.0501607619225978
5.576916015625,0.1979999989271164,-0.2360999882221222,-0.1642999947071075,0.0163362808525562,-0.0421846061944961,0.0108035877346992
5.59676904296875,0.0030999998562037,-0.18019999563694,-0.1939999908208847,0.0253770872950553,0.022567106410861,-0.0123394774273037
5.616622314453125,-0.2370999902486801,-0.0276999995112419,-0.1340999901294708,0.0076619954779744,0.0340339206159114,0.0050265481695532
5.6364736328125,-0.2599000036716461,0.0983999967575073,-0.044999998062849,-0.0316951796412467,-0.0056374133564531,0.0535292476415634
5.6563271484375,-0.0171999987214803,0.0449000000953674,-0.0263999998569488,-0.0539132207632064,-0.036861352622509,0.093148224055767
5.676178466796875,0.0807999968528747,-0.0537999980151653,-0.0286999996751546,-0.0464781187474727,-0.0124791041016578,0.0886976346373558
5.696031494140625,-0.1200999990105629,0.0126000000163912,-0.1184999942779541,-0.066095620393753,-0.0313810184597969,0.1058018580079078
5.715884765625,-0.0505999997258186,0.1608999967575073,0.0750999972224235,-0.0813847035169601,-0.0170169603079557,0.1380904465913772
5.735736328125,-0.0282999984920024,0.0958999991416931,0.0626000016927719,-0.0774402618408203,-0.0390255637466907,0.1897871047258377
5.755589599609375,0.2135999947786331,-0.009800000116229,-0.1459999978542328,-0.10515608638525,-0.076462872326374,0.2076418250799179
5.775442626953125,0.3201999962329864,-0.0515999980270862,-0.1109999939799308,-0.1179842576384544,-0.071191981434822,0.1879196017980575
5.795295654296875,0.2421000003814697,-0.0707999989390373,-0.1938999891281128,-0.0984540209174156,-0.0661828815937042,0.191043734550476
5.8151474609375,0.4098999798297882,-0.0546000003814697,-0.4427999854087829,-0.1218414381146431,-0.0542099252343177,0.1994038671255111
5.83500048828125,0.2953999936580658,-0.1123999953269958,-0.2312999963760376,-0.1609019041061401,0.0073827425949275,0.1718102097511291
5.85485205078125,0.0173000004142522,-0.0835999995470047,0.3822000026702881,-0.1320865154266357,0.0837059915065765,0.157638132572174
5.874705078125,-0.1669999957084655,-0.0502999983727932,0.703499972820282,-0.0502480305731296,0.1330115348100662,0.1504822820425033
5.894558349609375,-0.2531000077724457,-0.1798999905586242,0.4491999745368957,-0.0074176494963467,0.1327672004699707,0.1751088798046112
5.914411376953125,-0.3398000001907348,-0.1807999908924102,0.1174999997019767,-0.042219515889883,0.1625948697328567,0.1743932962417602
5.934264404296875,-0.3322999775409698,-0.2829000055789947,0.5013999938964844,-0.0487819537520408,0.1057145893573761,0.1738696992397308
5.954115966796875,-0.2572000026702881,-0.3246999979019165,0.4332000017166137,-0.0223227608948946,-0.0028274334035813,0.139434352517128
5.97396923828125,-0.0060999998822808,-0.1749999970197677,0.0206000003963708,-0.0229685325175523,-0.020699605345726,0.131789818406105
5.99382080078125,0.015999998897314,-0.2996000051498413,0.0196000002324581,-0.0251152869313955,0.0053756139241158,0.0974242761731147
6.013673828125,-0.0537999980151653,-0.3445999920368194,-0.0298999994993209,0.0112224668264389,0.0019373154500499,0.0754854902625083
6.03352685546875,0.1604000031948089,-0.2295999974012375,-0.431799978017807,0.0070336768403649,0.0107512278482317,0.0560948811471462
6.053380126953125,0.1609999984502792,-0.1625999957323074,-0.4608999788761139,-0.0323933102190494,0.0581892766058445,0.0426209419965744
6.073231689453125,0.1123999953269958,-0.1956999897956848,-0.1077999994158744,-0.0600044205784797,0.0749095305800437,0.0442091897130012
6.09308642578125,0.1354999989271164,-0.203699991106987,0.1466999948024749,-0.0558505356311798,0.0359537824988365,0.045954518020153
6.112937744140625,0.2784000039100647,-0.1145999953150749,0.0574999973177909,-0.0563741363584995,0.0063704517669975,0.0475427694618701
6.132789306640625,0.4350000023841858,-0.0156999994069337,-0.0221999995410442,-0.0695164650678634,0.0047996556386351,0.0381703488528728
6.152642578125,0.4540999829769134,-0.0023000000510364,0.0248999986797571,-0.0779987648129463,0.0214675497263669,0.0404392778873443
6.172495849609375,0.5254999995231628,-0.0153999999165534,0.3270999789237976,-0.0499862283468246,-0.0226543731987476,0.0309795942157506
6.19234716796875,0.7062000036239624,0.0224999990314245,0.0019999998621642,-0.022183135151863,-0.0599869675934314,-0.005846852902323
6.212200439453125,0.6543999910354614,0.2329999953508377,-0.1564999967813491,-0.0099134696647524,-0.0310843139886856,-0.0378387384116649
6.2320537109375,0.5108000040054321,0.4904999732971191,-0.206399992108345,0.0080285146832466,-0.0091455252841115,-0.0072082099504768
6.25190673828125,0.2432999908924102,0.0966999977827072,-0.3044999837875366,-0.0228114537894725,0.0533721670508384,0.0301592890173196
6.27175830078125,-0.1106999963521957,0.0219999998807907,0.215499997138977,-0.0619068294763565,0.0277681890875101,-0.0034906584769487
6.291611328125,-0.60589998960495,0.181099995970726,0.322299987077713,-0.0302465558052063,0.0496197119355201,0.0359363295137882
6.311464599609375,-0.6658999919891357,0.1174999997019767,0.2929999828338623,-0.0403520129621028,0.0452214814722538,0.1227490082383155
6.331316162109375,-0.4148999750614166,-0.0531999990344047,0.4007000029087066,-0.0692023038864135,0.0113271865993738,0.1546187251806259
6.351169189453125,-0.2396999895572662,-0.2483000010251999,0.752299964427948,-0.030072022229433,-0.0541401132941246,0.1441991031169891
6.371022216796875,-0.0474999994039535,-0.2543999850749969,0.3779999911785126,0.040037851780653,-0.1027300804853439,0.0900764390826225
6.390873779296875,-0.0105999996885657,0.0991999953985214,-0.1129999980330467,0.0507192686200141,-0.0726929605007171,0.0537910461425781
6.41072705078125,-0.045499999076128,0.0296999998390674,-0.2207999974489212,0.0352731049060821,0.0132295954972505,0.06321582198143
6.430580078125,0.0339999981224536,0.0120999999344348,0.0154999997466802,0.0330565348267555,-0.0020420351065695,0.0486772321164608
6.450431640625,0.1796000003814697,0.1323999911546707,0.0063999998383224,0.0604407526552677,-0.0130027029663324,0.0457625314593315
6.47028466796875,0.1071999967098236,0.1296999901533126,-0.1196999996900558,0.0497418828308582,-0.025359634310007,0.0435634180903434
6.490137939453125,-0.1045999974012374,-0.0276999995112419,-0.0502000004053115,0.0063704517669975,-0.0182037837803363,0.042219515889883
6.509990966796875,0.0181999988853931,-0.0099999997764825,0.116299994289875,0.0121823977679014,0.0276285614818334,0.0371580608189106
6.529842529296875,0.1696999967098236,-0.1305000036954879,0.4503999948501587,0.0496371649205684,0.0605280175805091,0.0264068320393562
6.549695556640625,0.209999993443489,-0.2874999940395355,0.4426999986171722,0.0936020091176033,0.0105068823322653,-0.0129677960649132
6.569548828125,0.0749000012874603,-0.4032000005245209,0.0037999998312443,0.0653800368309021,-0.0661828815937042,-0.0667762979865074
6.589400390625,0.0635999962687492,-0.2673999965190887,-0.1131999939680099,0.0297753177583217,-0.0495673492550849,-0.1112821921706199
6.60925341796875,-0.0020999999251216,-0.2317999899387359,0.1023999974131584,0.0652404054999351,0.0260752197355031,-0.1436231434345245
6.6291064453125,-0.0328000001609325,-0.182899996638298,0.1141999959945678,0.1323832273483276,0.080075703561306,-0.1769414842128753
6.6489599609375,-0.4736000001430511,-0.0581999979913234,-0.0477999970316886,0.1518959999084472,0.0956614986062049,-0.1813397109508514
6.668811279296875,-0.7734999656677246,0.2488999962806701,-0.4345999956130981,0.0897971913218498,0.0455530919134616,-0.1350884884595871
6.68866455078125,-0.7996999621391296,0.3906999826431274,-0.6078999638557434,-0.0147480322048068,-0.0087440991774201,-0.0631634667515754
6.708517578125,-0.524399995803833,0.3845999836921692,-0.500499963760376,-0.0680852904915809,-0.0106290550902485,-0.0011170107172802
6.728370849609375,-0.0157999992370605,0.1720999926328659,-0.149399995803833,-0.0489390306174755,0.0273493099957704,0.0201236456632614
6.748222412109375,0.2247999906539917,0.063400000333786,0.2321999967098236,-0.0052534411661326,0.044139377772808,-0.00733038270846
6.768073974609375,0.3220999836921692,0.1623999923467636,0.4192000031471252,0.0287455730140209,0.0202981792390346,-0.0115540800616145
6.787928466796875,0.2577999830245971,0.1568000018596649,0.2928999960422516,0.0415562875568866,-0.0339990146458148,0.0125838238745927
6.8077802734375,0.2509999871253967,0.1678999960422516,0.0581000000238418,0.0076969019137322,-0.0248011294752359,0.0505621880292892
6.82763330078125,0.1762000024318695,0.0279999990016222,0.2245999872684478,-0.029304077848792,-0.0099483765661716,0.0826064348220825
6.847486328125,0.1130999997258186,-0.0069999997504055,0.3021000027656555,-0.0158126838505268,0.0230383463203907,0.1107585951685905
6.867337890625,0.1635999977588653,-0.064699999988079,0.2628999948501587,0.0061610122211277,0.0226718261837959,0.1437104046344757
6.887191162109375,0.046399999409914,-0.1074000000953674,-0.118999995291233,-0.006422811653465,-0.0032637657131999,0.1701696068048477
6.907044189453125,0.1587999910116195,-0.2266999930143356,-0.2858999967575073,-0.0482583530247211,0.0284314136952161,0.1713738739490509
6.926895751953125,0.0810999944806099,-0.2593999803066253,-0.1297999918460846,-0.0604058466851711,0.0568279214203357,0.1591740250587463
6.946748779296875,0.0093000000342726,-0.152099996805191,0.1832000017166137,-0.0777544155716896,0.0314682871103286,0.1769065707921981
6.966601806640625,-0.1852999925613403,-0.2084999978542328,0.3483999967575073,-0.0556585490703582,-0.0363726615905761,0.1879719644784927
6.986455078125,0.0084999995306134,-0.1318999975919723,0.0912999957799911,-0.0718377530574798,-0.0583463571965694,0.1842893213033676
7.006306640625,-0.1152999997138977,-0.0815999954938888,0.0197999998927116,-0.0574562400579452,-0.045954518020153,0.1835911870002746
7.02615966796875,0.0768999978899955,-0.1026000007987022,-0.1097999960184097,-0.0604058466851711,-0.0112922806292772,0.1668709218502044
7.04601123046875,0.09009999781847,-0.1422999948263168,0.0452999994158744,-0.0387463085353374,0.0034732052590698,0.1221032366156578
7.065864501953125,-0.0201999992132186,-0.1363999992609024,-0.0537000000476837,-0.0125838238745927,0.0089186327531933,0.0817861258983612
7.085717529296875,0.0284000001847744,-0.0662999972701072,-0.142099991440773,-0.0044680428691208,0.0244695153087377,0.0555887371301651
7.105569091796875,0.0709000006318092,-0.0366999991238117,-0.0929000005125999,-0.0049218283966183,0.0301418360322713,0.0429700054228305
7.125422119140625,0.0461999997496604,0.0420999974012374,-0.0630999952554702,-0.011013027280569,0.0192335285246372,0.0379783660173416
7.145273681640625,0.0881000012159347,0.063400000333786,-0.0238999985158443,-0.0429001934826374,0.0335103198885917,0.0265813637524843
7.165126953125,0.0055999998003244,0.0321999974548816,0.1911999881267547,-0.0449945889413356,0.0327074714004993,0.0100356433540582
7.18497998046875,0.0507999993860721,0.0310999993234872,0.3278999924659729,-0.0066846110858023,0.0125838238745927,0.0145385926589369
7.204833251953125,0.0526999980211257,-0.0068999999202787,0.3082999885082245,0.0289550125598907,-0.0149051118642091,0.0008901178953237
7.2246845703125,-0.1266999989748001,0.0462999977171421,0.2694999873638153,0.0422369688749313,-0.0288328398019075,0.0091106183826923
7.24453955078125,-0.0148999998345971,-0.0304999984800815,0.0740000009536743,0.0330216288566589,-0.0333706960082054,0.0333357900381088
7.26439111328125,0.2129999995231628,-0.1745999902486801,-0.0335999988019466,0.0158999487757682,-0.0377340167760849,0.0441742837429046
7.284244140625,0.3219999969005584,-0.1977999955415725,0.0543999969959259,-0.0105243353173136,-0.0760963559150695,0.0381354428827762
7.304097412109375,0.2176999896764755,-0.0784000009298324,0.2293999940156936,-0.0105941481888294,-0.1151568219065666,0.0216769892722368
7.323948974609375,-0.0112999994307756,-0.0175999999046325,0.1586000025272369,0.030072022229433,-0.1119803264737129,0.0177325457334518
7.343800537109375,0.1034999936819076,0.044999998062849,-0.2050999999046325,0.0529881976544857,-0.0567231997847557,0.010105456225574
7.363653564453125,0.18019999563694,-0.033900000154972,-0.3025999963283539,0.0240855440497398,0.0145211396738886,-0.0030543261673301
7.383506591796875,0.0552999973297119,-0.0873999968171119,-0.0175000000745058,-0.0122173046693205,0.0078888880088925,-0.0100007364526391
7.40335986328125,0.0274000000208616,-0.1140999943017959,0.0802999958395958,-0.0074176494963467,-0.0208741370588541,-0.0159174036234617
7.42321142578125,-0.0154999997466802,-0.1024999991059303,0.0110999997705221,0.0168249737471342,-0.0134041290730237,-0.026127578690648
7.443064453125,-0.0372000001370906,-0.085499994456768,-0.0474999994039535,0.0435110591351985,0.0119031453505158,-0.0231256131082773
7.46291748046875,0.0144999995827674,-0.0835999995470047,-0.0854000002145767,0.0294262506067752,0.0123918373137712,-0.0109083075076341
7.482769287109375,-0.0318999998271465,-0.0203999988734722,-0.0256999991834163,-0.0151843642815947,-0.0138055542483925,-0.0016580627998337
7.502622314453125,-0.0346000008285045,0.0120999999344348,0.2089999914169311,-0.040142573416233,-0.0340339206159114,0.0098960166797041
7.522475341796875,0.0074000000022351,-0.0486999973654747,0.1583999991416931,-0.017086774110794,-0.0246615018695592,0.0247138626873493
7.542328369140625,0.1489999890327453,-0.1043999940156936,0.0398999974131584,0.0072605698369443,-0.0023561944253742,0.0167551599442958
7.56218017578125,0.0987999960780143,-0.0372999981045722,0.0693999975919723,0.0142593402415514,-0.0037873645778745,-0.0056548668071627
7.582033203125,-0.0781999975442886,0.1366999894380569,0.2461999952793121,0.0179245304316282,-0.0311541277915239,0.0027401668485254
7.60188623046875,-0.0353999994695186,0.1331999897956848,0.0598999969661235,0.0175754651427268,-0.0547509789466857,0.0114144533872604
7.62173779296875,0.0614000000059604,0.0806000009179115,0.0105999996885657,0.0105243353173136,-0.0247836746275424,0.0146258594468235
7.6415908203125,0.0658999979496002,0.0784000009298324,0.0888999998569488,0.0088837258517742,0.0089535387232899,0.0203330852091312
7.6614443359375,0.0375999994575977,0.0566999986767768,0.2069999873638153,0.019111355766654,-0.0062657319940626,0.0424115024507045
7.681295654296875,0.1625999957323074,-0.1729999929666519,0.0700999945402145,0.0199142061173915,-0.0140324467793107,0.0367042757570743
7.701148681640625,-0.0471000000834465,-0.2360000014305114,0.0506999976933002,0.0291295442730188,0.0105766952037811,-0.030892327427864
7.721001953125,-0.3579999804496765,-0.0744000002741813,0.0515999980270862,0.0607723630964756,0.0646993517875671,-0.0398284122347831
7.740855224609375,-0.3931999802589416,-0.0952999964356422,-0.0830999985337257,0.0561472401022911,0.0634776279330253,-0.0156032433733344
7.760706787109375,-0.2428999990224838,-0.154799997806549,0.0563999973237514,0.0152192711830139,-0.001570796361193,0.0027750735171139
7.780559814453125,-0.0958999991416931,-0.1966999918222427,-0.1097999960184097,0.0035953782498836,-0.0537910461425781,0.0156730562448501
7.800412841796875,0.2953000068664551,-0.1385999917984008,-0.3261999785900116,-0.0144687797874212,-0.0060039325617253,0.0153065370395779
7.8202646484375,0.4407999813556671,-0.1944999992847442,-0.2777000069618225,-0.009669124148786,0.1039169058203697,-0.0153414439409971
7.84011767578125,0.5101000070571899,-0.1234999969601631,0.6746000051498413,0.1250179409980774,0.2289348393678665,-0.0589397698640823
7.859970703125,-0.2382999956607818,-0.3720999956130981,-0.3777999877929687,0.3255213499069214,0.3081553280353546,-0.1084896624088287
7.879822265625,-0.2639999985694885,0.1844999939203262,-0.8346999883651733,-0.0737401619553566,-0.0412246771156787,-0.0468097291886806
7.899675537109375,-0.5841999650001526,0.4054999947547912,-0.0332999974489212,-0.3856654167175293,-0.2292838990688324,0.0694291964173317
7.919528564453125,0.1147999987006187,0.0574999973177909,1.4922000169754028,-0.2167349904775619,-0.1348441392183303,0.0791332274675369
7.939381591796875,0.3610999882221222,-0.1466999948024749,1.5335999727249146,0.1657015532255172,-0.0400029458105564,-0.0092851519584655
