seconds_elapsed,accel_x,accel_y,accel_z,gyro_x,gyro_y,gyro_z
0.050238037109375,-0.1807999908924102,0.0867999941110611,0.0826999992132186,-1.1155097484588623,0.1477421224117279,0.57501620054245
0.07008642578125,-0.1807999908924102,0.0867999941110611,0.0826999992132186,-1.1155097484588623,0.1477421224117279,0.57501620054245
0.089939453125,-0.0225999988615512,-0.2755999863147735,-0.6198999881744385,-1.1155097484588623,0.1477421224117279,0.57501620054245
0.10979248046875,0.5047999620437622,-1.0681999921798706,-1.140399932861328,-1.1155097484588623,0.1477421224117279,0.57501620054245
0.12964404296875,0.4808999896049499,-0.9667999744415284,-1.0925999879837036,-1.1155097484588623,0.1477421224117279,0.57501620054245
0.149497314453125,1.222999930381775,-1.712999939918518,0.1467999964952469,-1.1155097484588623,0.1477421224117279,0.57501620054245
0.1693505859375,0.9283999800682068,-1.4128999710083008,0.50409996509552,-1.1155097484588623,0.1477421224117279,0.57501620054245
0.189201904296875,0.0209999997168779,-0.3888999819755554,0.0180999990552663,-1.1155097484588623,0.1477421224117279,0.57501620054245
0.209054931640625,0.3041999936103821,-2.07229995727539,0.2088999897241592,-1.1155097484588623,0.1477421224117279,0.57501620054245
0.228908447265625,0.917099952697754,0.0252999998629093,2.9398000240325928,-0.4460014402866363,0.8245807886123657,0.0508938021957874
0.248761474609375,-0.5307999849319458,-0.2222999930381775,3.178999900817871,-0.0708429142832756,0.5165825486183167,0.184830367565155
0.268613037109375,-0.0609999969601631,-1.1434999704360962,1.8281999826431277,0.0810879990458488,0.2239781022071838,0.5843886137008667
0.288466064453125,1.4465999603271484,-1.2273999452590942,0.2115999907255172,-0.0329867228865623,-0.1051386371254921,0.6468364596366882
0.308319091796875,3.0339999198913574,-0.9591999650001526,-1.567099928855896,-0.2989400029182434,-0.0755029395222663,0.4061381220817566
0.3281708984375,1.1373999118804932,0.1081999987363815,-1.4699000120162964,-0.3182607889175415,1.0034246444702148,0.0431445389986038
0.34802392578125,-0.651699960231781,0.3303000032901764,0.5724999904632568,-0.0539655797183513,1.121792912483215,-0.1794547587633133
0.367876953125,-0.7489999532699585,0.0115000000223517,2.0256998538970947,0.2554987370967865,0.7419220209121704,0.0491833798587322
0.387728515625,-0.3854999840259552,-0.0626999959349632,1.5579999685287476,0.55290287733078,0.4697379171848297,0.3194650709629059
0.407581787109375,-0.2615000009536743,-0.2199999988079071,-0.1191999986767768,0.6368008255958557,0.2415710240602493,0.4806985855102539
0.427434814453125,0.7015999555587769,-2.686800003051758,-2.214400053024292,0.2289173901081085,0.2828655242919922,0.1567131131887436
0.447286376953125,0.1384000033140182,-0.4727999866008758,-0.2777000069618225,-0.0819083005189895,0.5502673983573914,-0.0483456216752529
0.467139404296875,0.0817999988794326,-0.5171999931335449,0.4726999998092651,0.0566882938146591,0.2895501255989074,-0.054925512522459
0.486990966796875,-1.121399998664856,-0.0604999996721744,2.2951998710632324,0.3103544414043426,0.5181009769439697,-0.0239982772618532
0.50684423828125,-0.6721999645233154,-0.4080999791622162,1.462999939918518,0.6111968755722046,0.1461015045642852,0.098419114947319
0.526697265625,0.3660999834537506,-0.8256999850273132,-1.052799940109253,0.6019640564918518,0.2475749552249908,-0.0026529005263
0.546548828125,1.0288000106811523,-0.7177000045776367,-0.2149999886751175,0.3684913516044616,0.1115963533520698,-0.1757895648479461
0.56640185546875,0.6506999731063843,-0.4842000007629394,0.4668999910354614,0.2049365639686584,-0.5199161171913147,-0.4311486780643463
0.586255126953125,-0.3082000017166137,0.1965999901294708,-0.5819999575614929,0.0967959612607956,-0.7278546690940857,-0.4732983708381653
0.606106689453125,-0.3328999876976013,0.717799961566925,-1.218500018119812,-0.0424813143908977,-0.3987553715705871,-0.3226590156555176
0.625961181640625,0.1546999961137771,0.5394999980926514,-0.5155999660491943,-0.0568628273904323,-0.0541575662791729,-0.2247634977102279
0.645812744140625,0.1403999924659729,-0.2390999943017959,0.1942999958992004,0.0114842662587761,0.2002590745687484,-0.220452532172203
0.665666015625,0.0742999985814094,-0.2124999910593032,0.5823999643325806,0.115104466676712,0.2155481576919555,-0.2972295582294464
0.685517578125,-0.2445999979972839,-0.0376999974250793,0.7405999898910522,0.2430196404457092,0.2156877815723419,-0.3476695716381073
0.70537060546875,-0.2161999940872192,0.0507999993860721,0.1395999938249588,0.3400599360466003,0.2361081391572952,-0.2528109550476074
0.72522216796875,-0.2954999804496765,-0.179199993610382,-0.3314999938011169,0.4037120938301086,0.5768487453460693,-0.3010343909263611
0.745075439453125,-0.918899953365326,0.2113999873399734,-0.7950999736785889,0.3059736788272857,0.0857829302549362,-0.240750715136528
0.764928466796875,-0.6732000112533569,-0.1717000007629394,-0.4808999896049499,0.0426558479666709,-0.4027521908283233,-0.1989500820636749
0.78478173828125,0.0729999989271164,-0.1905999928712844,-0.3517999947071075,-0.1909913867712021,-0.6404311060905457,-0.163048654794693
0.804633056640625,-1.476099967956543,-0.4292999804019928,-0.9335999488830566,-0.3386113345623016,-0.4991990625858307,-0.0325154848396778
0.824486572265625,0.3980999886989593,0.248099997639656,-1.1098999977111816,-0.4241673648357391,-0.1215447261929512,0.1409702450037002
0.844339599609375,0.6602999567985535,-0.0099999997764825,-0.5638999938964844,-0.5176297426223755,0.4270995259284973,0.1563116908073425
0.864192626953125,0.8720999956130981,-0.1216999962925911,0.3799999952316284,-0.375455230474472,0.6857922077178955,0.0667762979865074
0.884044189453125,0.3308999836444855,-0.3729999959468841,0.9208999872207642,-0.1066047102212905,0.6930702328681946,-0.0214500967413187
0.9038974609375,0.0308999996632337,-0.4438000023365021,0.5449999570846558,0.055204764008522,0.5069483518600464,-0.0549953244626522
0.92375048828125,0.1184000000357627,-0.2216999977827072,-0.2144999951124191,0.0414341166615486,0.3752981424331665,-0.0981573164463043
0.94360205078125,-0.1291999965906143,-0.1533999890089035,-0.0533999986946582,-0.0906000435352325,0.2546784579753876,-0.0992394238710403
0.963455078125,-0.3376999795436859,-0.3270999789237976,1.1962999105453491,-0.0496371649205684,0.1771509200334549,-0.0358141548931598
0.983308349609375,0.2067999988794326,-0.0929000005125999,0.9261999726295472,0.1532748192548751,0.0117460656911134,-0.0458847060799598
1.003159912109375,0.2660000026226043,-0.0197000000625848,0.1947999894618988,0.2998301088809967,0.0220086015760898,-0.1163436472415924
1.023012939453125,0.1831000000238418,0.0889999940991401,-0.0661999955773353,0.3718947470188141,0.2007652223110199,-0.1056273281574249
1.042865966796875,0.0477999970316886,-0.0755999982357025,-0.9174000024795532,0.3832219541072845,0.3013660013675689,-0.0660607144236564
1.062717529296875,0.0680999979376792,-0.0693999975919723,-1.93149995803833,0.2317099124193191,0.3868522346019745,-0.0745255574584007
1.08257080078125,-0.0511999987065792,0.0934999957680702,-2.265499830245972,-0.0765850469470024,0.4376762211322784,-0.0845786556601524
1.102423828125,-0.8560999631881714,0.2061999887228012,-1.2222999334335327,-0.3811450004577636,0.4499284327030182,0.0308050606399774
1.12227685546875,-1.2911999225616455,-0.2238999903202057,0.5701999664306641,-0.4923573732376098,0.4194724261760711,0.2298074960708618
1.14212841796875,-0.4964999854564667,-0.4892999827861786,1.8571999073028564,-0.3185400366783142,0.2143264263868332,0.3315601944923401
1.161981689453125,0.3425999879837036,-0.3182999789714813,1.0313999652862549,-0.13578662276268,-0.0254818070679903,0.2450093179941177
1.181834716796875,0.6699999570846558,0.0163000002503395,0.5041999816894531,-0.0971275717020034,0.0369486212730407,0.1748296320438385
1.201686279296875,0.8351999521255493,-0.1251000016927719,0.2938999831676483,-0.1177748143672943,0.2199463844299316,0.1448099613189697
1.221539306640625,0.9369999766349792,-0.153899997472763,0.3903999924659729,-0.1541998386383056,0.30281463265419,0.0161617491394281
1.261245849609375,-0.1634999960660934,0.1678999960422516,1.5809999704360962,-0.1070759519934654,0.012269664555788,-0.0094945915043354
1.28109716796875,0.1120999976992607,0.1806000024080276,1.0162999629974363,0.0239110104739666,-0.1560673415660858,0.0555887371301651
1.300950439453125,0.460099995136261,0.1959999948740005,-0.0654999986290931,0.0464083030819892,-0.1659808158874511,0.051050879061222
1.3208037109375,0.4919999837875366,0.2360999882221222,-0.3422999978065491,-0.0229859855026006,-0.063372902572155,0.0310668610036373
1.3406552734375,0.2987000048160553,0.1815999895334243,0.2232999950647354,-0.0332659743726253,-0.0419402606785297,0.0497418828308582
1.36050830078125,0.284199982881546,0.0700999945402145,0.2003999948501587,-0.0008552113431505,-0.0745255574584007,0.0617148429155349
1.380361328125,0.3032000064849853,0.0399999991059303,-0.0566999986767768,0.0077667152509093,-0.0598647929728031,0.0440695621073246
1.400212890625,0.1093999966979026,0.0870999991893768,0.1869999915361404,0.0091455252841115,0.0143989659845829,0.0431445389986038
1.420066162109375,-0.0406999997794628,-0.003000000026077,0.6480000019073486,0.1143016144633293,0.0164235476404428,0.096062920987606
1.439919189453125,0.296999990940094,-0.0846999958157539,-0.0428999997675418,0.1628566682338714,-0.0440695621073246,0.0882089436054229
1.459772216796875,0.4957999885082245,-0.1754999905824661,-0.6541999578475952,0.0682598277926445,-0.0834092870354652,0.0191811677068471
1.479623779296875,0.4643999934196472,-0.1780999898910522,-0.2021999955177307,-0.0613832287490367,-0.0907222107052803,-0.0642106607556343
1.49947705078125,0.2982999980449676,-0.1542999893426895,0.4097999930381775,-0.0514697581529617,-0.0955567732453346,-0.1110902056097984
1.51932861328125,0.2511999905109405,-0.0430999994277954,0.218199998140335,0.0215373635292053,-0.0593237392604351,-0.151407316327095
1.539181640625,0.1053999960422515,0.0351999998092651,0.0603999979794025,0.0426733009517192,0.0274016689509153,-0.1676388680934906
1.55903466796875,0.045899998396635,0.0410999990999698,0.032999999821186,0.0444884411990642,0.0500560440123081,-0.1682846397161483
1.578887939453125,0.0204999987035989,0.0268999990075826,-0.0427999980747699,0.0020943949930369,0.0311715807765722,-0.1830850392580032
1.618592529296875,-0.185599997639656,0.1154999956488609,0.4370999932289123,0.0459894239902496,-0.0267035383731126,-0.1656142920255661
1.638445556640625,-0.1749999970197677,0.1497000008821487,0.0363999977707862,0.0843866690993309,-0.0565137602388858,-0.1380904465913772
1.65829736328125,-0.0925000011920929,0.1071999967098236,-0.1862999945878982,0.0720995515584945,-0.0599695146083831,-0.1114218160510063
1.678150390625,-0.0018999999156221,0.0662999972701072,-0.4095999896526336,0.0292342640459537,-0.0481885410845279,-0.1083325892686843
1.698001953125,-0.0069999997504055,0.1409000009298324,-0.3601000010967254,-0.0271747764199972,-0.0089011788368225,-0.1059065759181976
1.71785498046875,-0.2005999982357025,0.1572999954223632,-0.0574999973177909,-0.0631111040711402,0.0190415419638156,-0.0760090872645378
1.737708251953125,-0.2232999950647354,-0.0451999977231025,0.4985999763011932,-0.0414515696465969,-0.0138753671199083,-0.0436332300305366
1.757559814453125,0.1184999942779541,-0.1345999985933303,0.4765999913215637,0.0357094369828701,-0.0807738378643989,-0.0591841153800487
1.777412841796875,0.2815999984741211,-0.0321999974548816,-0.0037999998312443,0.0672475323081016,-0.0537212342023849,-0.1020843088626861
1.797265869140625,0.0595999993383884,-0.0134999994188547,-0.0800999999046325,0.0455705448985099,0.0413293950259685,-0.1215098202228546
1.817117431640625,-0.1037999987602233,-0.0390999987721443,0.2364999949932098,0.0347320511937141,0.0651705935597419,-0.1037249192595481
1.836970703125,-0.0381000004708766,-0.1020999997854232,0.2001999914646148,0.0301069300621747,-0.0227940008044242,-0.0948586463928222
1.856823974609375,0.255400002002716,-0.2915000021457672,0.0047999997623264,-0.0003665191470645,-0.167062908411026,-0.1152789965271949
1.876677001953125,0.600600004196167,-0.2295999974012375,-0.2243999987840652,0.0244520623236894,-0.1973094642162323,-0.1773603558540344
1.896528564453125,0.5504999756813049,-0.2299999892711639,-0.6000999808311462,0.0753284096717834,-0.0893259495496749,-0.210259810090065
1.9163818359375,0.5024999976158142,-0.2395000010728836,-0.7846999764442444,0.0793077573180198,-0.0347669571638107,-0.2090031802654266
1.93623486328125,0.5920000076293945,-0.2793000042438507,-0.9289000034332277,0.0358839705586433,-0.0883311107754707,-0.183730810880661
1.95608642578125,0.7580999732017517,-0.7131999731063843,-1.2824000120162964,0.0167900677770376,-0.1556484550237655,-0.1505520939826965
1.975939453125,0.9585999846458436,-1.6728999614715576,-1.834399938583374,-0.0225845612585544,-0.1617571115493774,-0.2045351415872573
1.995792724609375,0.6703000068664551,-1.8091999292373655,-1.535499930381775,-0.018954275175929,-0.0910887345671653,-0.3729943037033081
2.015645751953125,0.3254999816417694,-1.5995999574661257,-1.6764999628067017,-0.0517141073942184,-0.0283441469073295,-0.4876973628997803
2.035497314453125,0.0769999995827674,-1.5087000131607056,-1.6513999700546265,-0.2014808058738708,0.0579274781048297,-0.5306324362754822
2.055350341796875,-0.1218999996781349,-1.11080002784729,-0.6028000116348267,-0.3425208628177643,0.1381428092718124,-0.562135636806488
2.07520361328125,-0.2504000067710876,-0.6809999942779541,0.2357999980449676,-0.4683067500591278,0.2069087773561477,-0.5671272873878479
2.09505517578125,-0.2557999789714813,-0.2812999784946441,1.246899962425232,-0.5754350423812866,0.1893158704042434,-0.5488711595535278
2.114908203125,-0.5309999585151672,-0.1059999987483024,2.1758999824523926,-0.5627115964889526,0.1356120854616165,-0.5226213932037354
2.13476123046875,-1.0044000148773191,0.2922999858856201,3.007999897003174,-0.4207639694213867,-0.0193557012826204,-0.4628264009952545
2.154614501953125,-1.0394999980926514,0.7111999988555908,2.372599840164185,-0.2463357746601104,-0.1927716135978698,-0.362417608499527
2.174466064453125,-0.8958999514579773,0.8486999869346619,1.4560999870300293,-0.1770112961530685,-0.2688156068325043,-0.2713812589645386
2.194319091796875,-0.7210999727249146,0.8619999885559082,0.9626999497413636,-0.1607971787452697,-0.3148050308227539,-0.2464928478002548
2.214172119140625,-0.9185999631881714,1.0763999223709106,0.597000002861023,-0.1208465993404388,-0.3069510459899902,-0.2086541056632995
2.234025634765625,-0.8998000025749207,0.9381999969482422,0.0766000002622604,-0.091525062918663,-0.2833891212940216,-0.0965167060494422
2.253876953125,-0.5073999762535095,0.5855000019073486,-0.3534999787807464,-0.1104967966675758,-0.1885130107402801,0.0073478361591696
2.273730224609375,-0.2671000063419342,0.3026999831199646,-0.4292999804019928,-0.1410575062036514,-0.1244768798351287,0.026127578690648
2.29358154296875,-0.1817999929189682,0.2997999787330627,-0.3868999779224396,-0.1687558889389038,-0.0617148429155349,0.0174183864146471
2.3134345703125,-0.1625999957323074,0.2629999816417694,0.2243999987840652,-0.1437104046344757,0.0099309235811233,0.0276111084967851
2.3332880859375,-0.22809998691082,0.181999996304512,0.5634999871253967,-0.047054074704647,0.059201568365097,0.0322013236582279
2.353139404296875,-0.176499992609024,0.0137999998405575,1.1811000108718872,0.0935147404670715,0.0223925746977329,-0.0006457717972807
2.392845703125,0.3287000060081482,-0.191100001335144,0.1327999979257583,0.4710643589496612,-0.2979800701141357,-0.0510857887566089
2.412698974609375,0.7254999876022339,-0.3587999939918518,-1.493799924850464,0.3907966613769531,-0.2558827102184295,-0.1688605993986129
2.432550537109375,-0.0126000000163912,0.5787999629974365,-0.3069999814033508,0.2553067505359649,0.1303237378597259,-0.071191981434822
2.452402099609375,-0.1797999888658523,0.1777999997138977,0.1555999964475631,0.3641803860664367,0.2396162450313568,0.0096865771338343
2.472256591796875,-0.6132000088691711,0.2351000010967254,-0.1890999972820282,0.307509571313858,0.3202155530452728,0.097878061234951
2.49210986328125,0.4553999900817871,-0.0903999954462051,-0.4652999937534332,0.1437278687953949,-0.0268606171011924,0.1639038622379303
2.51196142578125,0.1406999975442886,0.17289999127388,0.0009999999310821,0.026947883889079,-0.1735031753778457,0.0317300856113433
2.531814453125,0.2049999982118606,0.558899998664856,0.9699999690055848,0.1133416816592216,0.0751887857913971,-0.0886976346373558
2.551666015625,-0.0507999993860721,0.4988999962806701,1.1134999990463257,0.4122467637062073,0.2479763776063919,-0.1030965968966484
2.57151904296875,-1.0081000328063965,0.156700000166893,-0.1783999949693679,0.4512374103069305,0.1587027907371521,-0.1199913844466209
2.591370849609375,0.234499990940094,0.1898999959230423,-1.3712999820709229,0.2085144817829132,0.0218864288181066,-0.0108908545225858
2.611223876953125,0.5340999960899353,0.3551999926567077,-0.8610000014305115,-0.0037000980228185,0.1291020065546035,-0.0672998949885368
2.631075439453125,0.1209999993443489,-0.0066999997943639,-0.45619997382164,-0.0877726078033447,0.1903805136680603,-0.082972951233387
2.650928466796875,0.0731000006198883,0.206399992108345,-0.2793000042438507,-0.1592263877391815,-0.0231954250484704,-0.0646819025278091
2.670783203125,-0.2413999885320663,-0.0377999991178512,-0.7572999596595764,-0.3131295144557953,-0.4329812824726105,-0.0610341653227806
2.690634765625,0.0520999990403652,-0.0273000001907348,-0.8185999989509583,-0.4711865484714508,-0.4755324125289917,-0.0524296909570694
2.71048779296875,0.3662000000476837,0.3854999840259552,-0.7292999625205994,-0.5257455110549927,-0.1711993515491485,-0.0490786582231521
2.73033935546875,0.2179999947547912,0.0736000016331672,-0.1940999925136566,-0.4863185286521911,0.1708328276872635,-0.0312413927167654
2.750192626953125,-0.0598999969661235,-0.7407000064849854,1.9860999584198,-0.3186796605587005,0.1237089335918426,-0.071366511285305
2.770045654296875,0.5532000064849854,-0.691100001335144,3.3107998371124268,0.1574636101722717,-0.0174358393996953,-0.305694431066513
2.789897216796875,0.2956999838352203,0.3041999936103821,1.403899908065796,0.5000368356704712,-0.0357094369828701,-0.3945665955543518
2.809750244140625,-1.0199999809265137,0.4409999847412109,-0.8431999683380127,0.4769635796546936,0.3279299139976501,-0.0996233969926834
2.829603759765625,-1.2271000146865845,0.5569999814033508,-2.1222000122070312,0.2808409333229065,0.521452009677887,0.3114190995693207
2.849455078125,0.3703999817371368,-0.974399983882904,-1.7661999464035034,-0.0097563909366726,0.3206344246864319,0.6146700382232666
2.86930810546875,0.1415999978780746,-0.3388999998569488,1.3392999172210691,-0.101141832768917,-0.1968731433153152,0.4631929397583008
2.889161376953125,1.0652999877929688,0.4153999984264374,1.9681999683380127,0.10349802672863,-0.3295181691646576,0.1317374557256698
2.9090126953125,1.0551999807357788,0.3828999996185303,0.2299999892711639,0.2083224952220916,-0.2224073112010955,-0.2119702398777008
2.9288662109375,0.2561999857425689,0.1312000006437301,-1.187399983406067,0.0662352442741394,-0.0613134168088436,-0.2285683155059814
2.94871923828125,-0.0797000005841255,0.2694999873638153,-1.0189999341964722,-0.0936020091176033,0.2041511684656143,-0.1513898521661758
2.968572265625,-0.1328999996185302,0.1423999965190887,-0.5480999946594238,-0.1600815951824188,0.343149185180664,-0.0928864255547523
2.988423828125,-0.2404999881982803,-0.0513000003993511,-0.0082999998703598,-0.205564871430397,0.38128462433815,-0.0350287593901157
3.008277099609375,0.0879999995231628,-0.4235999882221222,0.7760999798774719,-0.2267182618379593,0.196838229894638,-0.0242426227778196
3.028130126953125,-0.1090999990701675,-0.3504999876022339,0.2320999950170517,-0.1842020452022552,-0.1090132668614387,-0.1016130670905113
3.047983154296875,0.1873999983072281,0.0593999996781349,0.6536999940872192,-0.0320267900824546,-0.1651779562234878,-0.1124864667654037
3.067834716796875,-0.0654999986290931,0.126800000667572,-0.1849000006914138,0.0785572677850723,0.0080110616981983,-0.0877377018332481
3.08768798828125,0.0175000000745058,0.0744000002741813,-0.8190000057220459,0.0149749247357249,0.1324879378080368,-0.0638615936040878
3.107541015625,-0.0528999976813793,0.1020999997854232,-0.4523999989032745,-0.105313166975975,0.1869771182537078,-0.0768468454480171
3.127392578125,-0.2888999879360199,0.1627999991178512,0.2245000004768371,-0.1250702887773513,0.1794547587633133,-0.0530754625797271
3.14724560546875,-0.4192000031471252,0.2266999930143356,0.4790999889373779,-0.0871966481208801,0.1064301803708076,0.0087266461923718
3.167097412109375,-0.3499999940395355,0.0563999973237514,0.4491999745368957,-0.0388684831559658,0.0178372655063867,0.0696211829781532
3.186950439453125,0.023599999025464,0.090999998152256,-0.1008000001311302,-0.0432318039238452,0.0029670596122741,0.043214350938797
3.206803466796875,-0.0065999999642372,0.2839999794960022,0.0447000004351139,-0.064856432378292,0.1008451208472251,0.0348542258143425
3.226656494140625,-0.1454000025987625,0.0399999991059303,0.3391999900341034,-0.0653102174401283,0.0618719235062599,0.0558679886162281
3.24650830078125,0.0115999998524785,-0.0178999993950128,0.1324999928474426,-0.0730245783925056,-0.0232652388513088,0.0370533391833305
3.266361328125,-0.1410000026226043,0.1317999958992004,0.2763999998569488,-0.0714014172554016,-0.0501956678926944,0.025743605569005
3.28621435546875,-0.0434999987483024,0.0364999994635582,0.3999999761581421,0.003752457909286,-0.1086641997098922,0.0703018605709075
3.30606591796875,0.3547999858856201,-0.0837999954819679,-0.2300999909639358,0.0255690738558769,-0.1151742786169052,0.0525867715477943
3.3259189453125,0.3306999802589416,0.0075999996624886,-0.4574999809265136,-0.0162315610796213,-0.0255516208708286,-0.0062308255583047
3.3457724609375,-0.0072999997064471,0.0594999976456165,-0.0271999984979629,-0.0271224156022071,0.0471587963402271,-0.032690018415451
3.36562548828125,-0.1735999882221222,0.1533999890089035,-0.1348000019788742,-0.0209264978766441,0.0598822459578514,-0.009669124148786
3.385476806640625,-0.1322999894618988,0.2158999890089035,-0.2418999969959259,-0.0789063349366188,0.055047683417797,0.0373151376843452
3.405330078125,-0.1328999996185302,0.0138999996706843,0.3155999779701233,-0.0957313105463981,0.0249582082033157,0.0914727076888084
3.425183349609375,0.0744000002741813,-0.1174999997019767,0.6265999674797058,-0.0413643047213554,-0.0395317077636718,0.0743510276079177
3.445034912109375,0.132200002670288,0.0649999976158142,0.2807999849319458,0.0175929181277751,-0.0593761019408702,0.0493404567241668
3.464887939453125,0.1490999907255172,0.0995999947190284,-0.2985000014305115,0.0183434095233678,-0.0300894770771265,0.0559901632368564
3.484740966796875,0.2293999940156936,0.0256999991834163,-0.6220999956130981,-0.0390081070363521,0.028972465544939,0.0596379004418849
3.5045927734375,0.3402999937534332,0.0116999996826052,-0.2206999957561493,-0.120200827717781,0.068294733762741,0.0497942417860031
3.52444580078125,0.2039999961853027,-0.0452999994158744,0.2275999933481216,-0.1454382836818695,-0.0187622886151075,0.0121823977679014
3.544298828125,0.1798999905586242,0.0995000004768371,0.3003999888896942,-0.1253320872783661,-0.0649437010288238,0.0087790060788393
3.56415185546875,-0.1665999889373779,-0.1414999961853027,0.8337000012397766,-0.0325154848396778,-0.08335692435503,0.046931903809309
3.584003662109375,0.2956999838352203,-0.2050999999046325,0.4872999787330627,0.0662701502442359,-0.1483704447746276,0.0388510301709175
3.603856689453125,0.4122999906539917,-0.0617999993264675,-0.2493999898433685,0.0585732497274875,-0.1098335683345794,-0.0244869701564311
3.623709716796875,0.1266999989748001,0.0940999984741211,-0.3480999767780304,0.0062657319940626,-0.0182561445981264,-0.0191986225545406
3.643561279296875,-0.033500000834465,0.0245999991893768,-0.1129999980330467,-0.0332659743726253,0.0192335285246372,0.0078190751373767
3.66341455078125,0.0181999988853931,-0.0965999960899353,-0.0352999977767467,-0.0589048638939857,0.0067369709722697,0.0220784153789281
3.683267578125,0.1652999967336654,-0.0955999940633773,-0.0568999983370304,-0.0945968478918075,-0.0364773795008659,-0.0098087508231401
3.703119140625,0.0010999999940395,0.0010999999940395,0.0074000000022351,-0.1135860309004783,-0.1067617908120155,-0.0486597791314125
3.72297216796875,-0.1650999933481216,0.1317999958992004,0.1284999996423721,-0.0973893702030181,-0.0647866204380989,-0.0196000467985868
3.742825439453125,-0.0594999976456165,0.1213999986648559,0.0157999992370605,-0.0652404054999351,-0.0199665669351816,0.0094771375879645
3.7626787109375,-0.0248999986797571,0.0846000015735626,-0.0455999970436096,-0.062378067523241,0.0330216288566589,0.0097040310502052
3.782530029296875,-0.0681999996304512,0.1254999935626983,0.3353999853134155,-0.0468620918691158,0.0120427720248699,0.0068416907452046
3.802383056640625,-0.1545999944210052,0.1048000007867813,0.343999981880188,-0.0057595865800976,-0.041399210691452,0.0128630762919783
3.822234619140625,-0.2122000008821487,0.1151999980211258,0.2251999974250793,0.0172263998538255,-0.0621337220072746,0.028815384954214
3.842087890625,-0.117199994623661,0.0423999987542629,-0.0892999991774559,0.0340339206159114,-0.0589397698640823,0.0484503395855426
3.861941162109375,0.1049999967217445,-0.0046000001020729,-0.3835999965667724,0.0156032433733344,-0.01977458037436,0.0521678924560546
3.881794189453125,0.1777999997138977,-0.1363999992609024,-0.1972000002861023,-0.0111352009698748,0.0389557480812072,0.030124383047223
3.901647216796875,0.0564999990165233,-0.1545999944210052,0.1561999917030334,0.0037699111271649,0.0366519130766391,-0.0034033919218927
3.921497314453125,-0.0833999961614608,-0.0473999977111816,0.1178999990224838,0.0143815129995346,0.0058643063530325,-0.0057246801443398
3.9413505859375,-0.0429999977350235,0.0185000002384185,-0.0480999983847141,0.0025481807533651,-0.0119729582220315,0.0249931141734123
3.96120361328125,0.0615999996662139,-0.0803999975323677,-0.2247999906539917,-0.0333532430231571,0.0244171563535928,0.044418629258871
3.981056640625,0.025399999693036,-0.2022999972105026,0.058799996972084,-0.0686961561441421,0.0151320043951272,0.044034656137228
4.000908447265625,0.1834999918937683,-0.2583999931812286,0.3411999940872192,-0.061941735446453,-0.0311192199587821,0.0313984714448452
4.020761474609375,0.2250999957323074,-0.1289999932050705,0.3677999973297119,-0.0224449336528778,-0.0553792975842952,0.0095294974744319
4.040614501953125,0.2038999944925308,-0.1635999977588653,0.0420999974012374,0.0174881983548402,-0.016702800989151,-0.0080634206533432
4.060466064453125,0.1807999908924102,-0.1172999963164329,-0.0067999996244907,0.0287804789841175,0.0182386897504329,-0.0367566347122192
4.08032080078125,0.0672999992966651,-0.0038999998942017,0.0530999973416328,0.0480838194489479,0.0125663708895444,-0.0523249693214893
4.100173828125,-0.1151999980211258,0.2038999944925308,-0.190200001001358,0.0363377556204795,-0.0127758104354143,-0.0259355921298265
4.12002392578125,-0.1953999996185302,0.2171999961137771,-0.3559999763965606,-0.0229859855026006,-0.014433872886002,0.0072780228219926
4.13987841796875,-0.1103999987244606,0.2018999904394149,0.0056999996304512,-0.06736970692873,-0.0161442961543798,0.0224623866379261
4.159731689453125,0.0034999998752027,0.1448999941349029,0.2973999977111816,-0.0661479756236076,-0.028152160346508,0.0611563362181186
4.179583251953125,0.2213999927043914,0.067900002002716,0.3339000046253204,-0.0388335771858692,-0.0598124340176582,0.0621511749923229
4.199434814453125,0.2955999970436096,-0.0240000002086162,0.2626999914646148,0.0113970004022121,-0.0435808710753917,0.0270700566470623
4.219289306640625,0.2662000060081482,-0.0561999976634979,0.2326999902725219,0.0648215264081955,0.0133517691865563,-0.0124965570867061
4.258994140625,-0.1457999944686889,0.1917999982833862,0.012699999846518,0.0430223643779754,0.0065100779756903,0.000733038294129
4.278845703125,0.0313999988138675,-0.0321999974548816,-0.04449999704957,-0.0017278759041801,-0.0479965545237064,0.0596728064119815
4.29869873046875,0.2648999989032745,-0.238999992609024,0.0522999987006187,-0.0217468030750751,-0.077719509601593,0.0519409999251365
4.3185517578125,0.2574000060558319,-0.2258999943733215,0.0401000007987022,-0.0034732052590698,-0.0882263928651809,0.009424777701497
4.338403564453125,0.210099995136261,-0.0878999978303909,-0.1578999906778335,0.0292168110609054,-0.0421322472393512,-0.0172787588089704
4.358256591796875,0.1920999884605407,-0.0635999962687492,-0.2657999992370605,0.0323060452938079,-0.0180641580373048,-0.0338768400251865
4.37810986328125,0.1498999893665313,0.0876999944448471,-0.3925999999046325,0.0139277270063757,-0.0142593402415514,-0.0418355427682399
4.397962890625,0.0988999977707862,0.2622999846935272,-0.2257999926805496,-0.0097040310502052,-0.006492624990642,-0.0439473912119865
4.417814697265625,-0.1659999936819076,0.2549000084400177,-0.1674000024795532,-0.0095294974744319,-0.0060737458989024,-0.0282394271343946
4.437667724609375,-0.0292999986559152,0.3449999988079071,-0.3050999939441681,-0.0355349034070968,0.0394968017935752,0.0010122909443452
4.457520751953125,-0.0317999981343746,0.2922999858856201,0.1750999987125396,-0.0615752153098583,0.0971624776721,0.0087440991774201
4.477372314453125,-0.131300002336502,0.0680999979376792,0.7339999675750732,-0.0178721714764833,0.0899891778826713,0.0169122405350208
4.4972255859375,-0.124499998986721,-0.0859000012278556,0.5881999731063843,0.0259530451148748,0.0406138114631176,0.0166853480041027
4.51707861328125,-0.0094999996945261,-0.1305999904870987,0.2270999997854232,0.0215199086815118,0.0191986225545406,-0.0063879052177071
4.536931640625,-0.0841000005602836,-0.1542000025510788,0.1398999989032745,0.0183957703411579,0.0225845612585544,0.0009599310578778
4.556783203125,-0.0307999998331069,-0.2949000000953674,0.1997999995946884,0.0117460656911134,0.0152367241680622,0.0300022102892398
4.576636474609375,0.0592000000178813,-0.3659999966621399,0.1023999974131584,0.0075398222543299,-0.013613567687571,0.0189019162207841
4.596488037109375,-0.0224999990314245,-0.1711999922990799,0.2590999901294708,0.0187448356300592,-0.0173311196267604,0.0276285614818334
4.616341064453125,0.0515000000596046,-0.2238999903202057,-0.0053999996744096,0.0307177938520908,-0.0309795942157506,0.0407534390687942
4.636194091796875,0.1714999973773956,-0.1319999992847442,-0.2208999991416931,-0.0055850534699857,-0.0138928210362792,0.0217468030750751
4.656047119140625,-0.0182999987155199,0.0258999988436698,-0.0350999981164932,-0.0398109592497348,0.0202981792390346,0.011257373727858
4.675900390625,-0.1030999943614006,0.0532999970018863,0.3069999814033508,-0.0292517188936471,0.0146084055304527,0.05148721113801
4.695751953125,0.0841000005602836,-0.1083999946713447,0.0806999951601028,-0.0251676477491855,-0.0456578135490417,0.084439031779766
4.71560498046875,0.4153999984264374,-0.2714999914169311,-0.0387999974191188,-0.0663225129246711,-0.0764279663562774,0.0492008328437805
4.73545654296875,0.4670999944210052,-0.2002999931573867,0.2317999899387359,-0.0379783660173416,-0.0501782149076461,-0.0187099296599626
4.755309814453125,0.2906000018119812,-0.0645999982953071,0.2784000039100647,0.0311017669737339,-0.0360410474240779,-0.0477173030376434
4.775162841796875,0.1177999973297119,-0.0200999993830919,-0.1136000007390976,0.0610516183078289,-0.0359363295137882,-0.048572514206171
4.814867431640625,-0.0192999988794326,0.0846999958157539,0.0737999975681305,-0.0190066359937191,-0.0424813143908977,-0.055204764008522
4.834720947265625,-0.065600000321865,0.1290999948978424,0.121299996972084,0.0180467050522565,-0.0754680335521698,-0.0483630746603012
4.854573974609375,-0.0487999990582466,0.1953999996185302,-0.2128999978303909,0.0489564836025238,-0.0315904580056667,-0.0416959151625633
4.87442529296875,-0.1125999987125396,0.2649999856948852,-0.3491999804973602,0.024696409702301,0.0368438996374607,-0.0309097804129123
4.894278564453125,-0.1437999904155731,0.1428999900817871,0.0837999954819679,-0.0126885436475276,0.0397062413394451,-0.0177325457334518
4.9141318359375,-0.1453000009059906,0.0571999996900558,0.260699987411499,-0.013526301831007,-0.0060562924481928,0.0006283185211941
4.9339833984375,-0.0092000002041459,0.1085999980568885,0.171899989247322,0.0046774824149906,-0.0094422316178679,-0.0016231562476605
4.95383642578125,-0.0208000000566244,0.1564999967813491,0.0639999955892562,0.0265813637524843,0.02979277074337,-0.0053930673748254
4.973689453125,-0.1912999898195266,0.1903999894857406,0.1145999953150749,0.0476125814020633,0.0564788542687892,0.0208043251186609
4.993542724609375,-0.1907999962568283,0.1118999943137168,0.3037000000476837,0.0674395188689231,0.0733387321233749,0.0556934550404548
5.013394287109375,-0.2272999882698059,0.0386999994516372,0.2486999928951263,0.0961850956082344,0.0407359860837459,0.0702320486307144
5.033247314453125,-0.0744999945163726,0.1656000018119812,-0.0903000012040138,0.0616450272500515,-0.0064751715399324,0.1243197992444038
5.053100341796875,-0.0110999997705221,0.0626000016927719,-0.1861999928951263,-0.0156556032598018,-0.0482932589948177,0.1814967840909958
5.072951904296875,0.2969000041484833,-0.261599987745285,-0.1582999974489212,-0.0726580545306205,-0.0947364717721939,0.1893856823444366
5.09280517578125,0.5562999844551086,-0.2709999978542328,-0.1136000007390976,-0.0853989571332931,-0.0732689201831817,0.1261523962020874
5.112658203125,0.4294999837875366,-0.0999999940395355,0.2348999977111816,-0.0275063887238502,0.0013962633674964,0.0871093794703483
5.132509765625,0.5144000053405762,-0.3118000030517578,0.3222000002861023,0.0505447350442409,0.0393920801579952,0.0513824932277202
5.15236279296875,0.2055999934673309,-0.2829000055789947,0.1871999949216842,0.0844215750694274,0.0350113064050674,-0.0336324945092201
5.172216064453125,-0.5909000039100647,0.1821999996900558,-0.0740000009536743,0.1022937446832656,0.0404392778873443,-0.0396713353693485
5.192069091796875,-1.04229998588562,0.4769999980926513,-0.3147999942302704,0.1023461073637008,0.0472286082804203,0.046652652323246
5.211920654296875,-0.9358999729156494,0.387499988079071,-0.5651000142097473,0.0415388345718383,0.0152541771531105,0.1394867151975631
5.231773681640625,-0.1525999903678894,0.0626999959349632,-0.3669999837875366,-0.0499338693916797,-0.0532674491405487,0.1409527957439422
5.251626953125,0.2150999903678894,-0.097300000488758,0.1303000003099441,-0.1021715775132179,-0.1269727051258087,0.0744557455182075
5.271478515625,0.2865000069141388,-0.0301999989897012,0.7127999663352966,-0.0546462573111057,-0.1740965992212295,0.0470191687345504
5.29133154296875,0.6238999962806702,-0.0891999974846839,0.6193999648094177,0.0708778202533721,-0.1419476270675659,0.021031217649579
5.311184814453125,0.7032999992370605,-0.1422999948263168,0.0407999977469444,0.157201811671257,-0.0179594382643699,-0.0348716787993907
5.331036376953125,0.3474999964237213,0.0731000006198883,-0.3166999816894531,0.1254018992185592,0.0384845100343227,-0.0546986199915409
5.3508896484375,0.1209999993443489,0.0793000012636184,-0.3998000025749206,0.0321315117180347,0.0026354470755904,-0.0308225136250257
5.37074267578125,0.2004999965429306,0.1030000001192092,-0.1339000016450882,-0.0285535864531993,-0.0204727128148078,-0.0155508834868669
5.390593994140625,0.2258999943733215,-0.0775999948382377,0.2078000009059906,0.0071558500640094,0.0258134193718433,-0.0130201559513807
5.410447265625,0.1816999912261963,-0.2551999986171722,0.3260999917984009,0.0721519142389297,0.0533372610807418,-0.0155857903882861
5.430300537109375,0.0252000000327825,-0.1116999983787536,-0.0625,0.088069312274456,0.0588699541985988,-0.0161792021244764
5.450152099609375,-0.1984999924898147,0.0678000003099441,-0.3132999837398529,0.0392000935971736,0.0471587963402271,-0.0010297442786395
5.470005126953125,-0.2190999984741211,0.0798999965190887,-0.222800001502037,-0.0382576175034046,0.0156905092298984,0.0340164676308631
5.489856689453125,-0.1096000000834465,-0.0015999999595806,0.0309999994933605,-0.091525062918663,0.0019547687843441,0.0416959151625633
5.5097099609375,-0.0324000008404254,0.0151999993249773,0.3709000051021576,-0.0657290965318679,0.0257610604166984,0.0309097804129123
5.52956298828125,0.1477999985218048,0.0376999974250793,0.6434000134468079,0.0361981280148029,0.0666715800762176,0.0009250245057046
5.54941455078125,-0.0068999999202787,0.0016999999061226,0.3319000005722046,0.1310567706823349,0.0667762979865074,-0.0099134696647524
5.56926904296875,-0.121299996972084,-0.0427000001072883,-0.3777999877929687,0.097878061234951,0.0493230037391185,-0.0125314639881253
5.589120849609375,-0.228999987244606,0.183799996972084,-0.382999986410141,-0.0049916417337954,0.0308050606399774,-0.0090233525261282
5.608973876953125,-0.1147999987006187,0.1455999910831451,-0.0590000003576278,-0.0523773320019245,0.0435808710753917,0.0149749247357249
5.628825439453125,0.1674999892711639,-0.0799999982118606,0.1064999997615814,-0.0295484233647584,0.0686612501740455,0.0074700093828141
5.648678466796875,0.1999000012874603,-0.2900999784469604,0.4891999959945678,0.0356919839978218,0.096062920987606,-0.0442615486681461
5.66853173828125,0.1118999943137168,-0.1488000005483627,0.2274999916553497,0.1248957589268684,0.1284562349319458,-0.1008625775575637
5.688384765625,-0.2126999944448471,0.0156999994069337,-0.1673000007867813,0.1107935011386871,0.1266585439443588,-0.0858178362250328
5.708236328125,-0.2439000010490417,-0.023199999704957,-0.5920000076293945,-0.0056199603714048,0.0861145481467247,-0.0140499006956815
5.72808935546875,-0.0305999983102083,-0.2079999893903732,-0.2863999903202057,-0.1145110502839088,0.0706683844327926,0.007504915818572
5.747942626953125,0.0609999969601631,-0.2938999831676483,0.2401999980211258,-0.118577666580677,0.0753807723522186,-0.0195825938135385
5.767794189453125,0.0663999989628791,-0.2408999949693679,0.6786999702453613,-0.0180117972195148,0.0652054995298385,-0.0411025024950504
5.787647216796875,0.0214999988675117,-0.1184999942779541,0.1889999955892563,0.0640884935855865,0.0573515184223651,-0.0487645007669925
5.807498779296875,-0.1616999953985214,0.0960999950766563,-0.277999997138977,0.0169122405350208,0.0329518169164657,-0.0349938496947288
5.827351806640625,-0.2224999964237213,0.1428000032901764,-0.3355000019073486,-0.0682249218225479,-0.0081157805398106,0.009669124148786
5.847205078125,0.1384000033140182,0.0087000001221895,-0.1714999973773956,-0.133988931775093,-0.0314508341252803,0.0383623354136943
5.867058349609375,0.3761000037193298,-0.064300000667572,0.2247999906539917,-0.1309345960617065,-0.0376467518508434,-0.0025307273026555
5.88690966796875,0.2020999938249588,0.049100000411272,0.6310999989509583,-0.0294262506067752,0.01972221955657,-0.0395491607487201
5.9067626953125,-0.1653999984264373,0.1929999887943267,0.306799978017807,0.0703367665410041,0.0545240864157676,-0.0195825938135385
5.9266162109375,-0.095499999821186,0.1015999987721443,-0.3366000056266784,0.0345400646328926,0.0467050112783908,0.0292342640459537
5.946467529296875,0.1181999966502189,-0.0428999997675418,-0.5108000040054321,-0.0615054033696651,0.0434586964547634,0.0248360354453325
5.96632080078125,0.0666999965906143,-0.0513000003993511,0.0271999984979629,-0.0921184793114662,0.048136182129383,0.0133866751566529
5.986173828125,-0.1794999986886978,-0.0535000003874301,0.5544999837875366,-0.0392699092626571,-0.0052883476018905,0.0380132719874382
6.006027099609375,0.0337999984622001,0.031599998474121,0.131300002336502,0.0079237949103116,-0.0138753671199083,0.0583114512264728
6.025878662109375,0.2446999996900558,0.0384999997913837,-0.0648000016808509,-0.0074176494963467,0.0161792021244764,0.0198269393295049
6.045731689453125,0.1488000005483627,0.0590999983251094,0.0332999974489212,-0.0177849046885967,0.0080459676682949,0.000907571229618
6.065584716796875,0.0520999990403652,0.0037000000011175,-0.0945999994874,-0.02387610450387,-0.0139800868928432,0.012601276859641
6.0854365234375,0.1957999914884567,0.0176999997347593,-0.1840000003576278,-0.0587128773331642,-0.0149574717506766,0.0222005881369113
6.10528955078125,0.1820999979972839,-0.0007999999797903,0.0879999995231628,-0.0737401619553566,0.0028448866214603,0.0011693706037476
6.125142578125,0.1037999987602233,-0.0357999987900257,0.2619999945163727,-0.0104894284158945,0.0236841179430484,-0.0145909525454044
6.14499560546875,0.0202999990433454,0.0056999996304512,0.0365999974310398,0.0356919839978218,0.0053058010526001,-0.0230383463203907
6.16484716796875,-0.0563999973237514,0.126800000667572,-0.2169999927282333,0.0099483765661716,-0.002076941775158,-0.0195127818733453
6.184700439453125,-0.0170999988913536,0.1252999901771545,-0.236299991607666,-0.0577354915440082,0.0102799888700246,-0.0112050138413906
6.204553466796875,0.063400000333786,-0.0300999991595745,0.2030999958515167,-0.0810356363654136,0.0086044734343886,-0.0013788101496174
6.224405029296875,0.1041999980807304,-0.1118000000715255,0.170999988913536,-0.0489913932979106,0.0057072266936302,0.0134739419445395
6.244258056640625,0.0850000008940696,-0.0737999975681305,0.1301999986171722,-0.0521504394710063,0.0142593402415514,0.000977384392172
6.264111328125,-0.0790999978780746,0.0537999980151653,0.5013999938964844,-0.0213104709982872,0.0138928210362792,0.0051487213931977
6.283962890625,-0.1257999986410141,0.0381999984383583,0.1969999969005584,0.0164584554731845,-0.013613567687571,0.0258134193718433
6.30381591796875,0.0077999997884035,0.005099999718368,-0.1949999928474426,-0.0153065370395779,-0.0296531431376934,0.0349938496947288
6.3236689453125,0.1086999997496604,-0.0612999983131885,-0.0687000006437301,-0.052307516336441,-0.002164208330214,0.0229336265474557
6.3435224609375,0.1171000003814697,-0.061499997973442,0.1156999990344047,-0.0322536826133728,0.0158999487757682,0.0059690261259675
6.363373779296875,0.0412999987602233,-0.0357999987900257,0.1834999918937683,-0.0036128314677625,0.0160046685487031,-0.0055326935835182
6.38322705078125,-0.0142999999225139,0.0434999987483024,-0.0024999999441206,0.0135961147025227,0.0015882495790719,0.0176976379007101
6.403080078125,-0.0049000000581145,0.001300000003539,-0.0901999995112419,-0.0012740903766825,-0.0152192711830139,0.0287804789841175
6.422931884765625,0.0497999973595142,0.1577000021934509,-0.0709999948740005,-0.0247138626873493,-0.0054977871477603,0.0349938496947288
6.442784912109375,0.18469999730587,0.1027999967336654,0.123999997973442,-0.0299323964864015,0.0212581101804971,0.0260054059326648
6.462637939453125,0.0307999998331069,-0.0096999993547797,0.1332999914884567,-0.0096865771338343,0.0212232042104005,0.0271049626171588
6.482489501953125,-0.0445999987423419,0.0403999984264373,0.0451999977231025,-0.0174183864146471,0.0234746783971786,0.0440870150923728
6.5023408203125,0.0268999990075826,0.0328999981284141,0.2511000037193298,-0.0216071754693985,0.0121998516842722,0.0436855927109718
6.52219580078125,0.0667999982833862,-0.0128999995067715,0.2603999972343445,0.0153588969260454,0.0189368221908807,0.0286234002560377
6.54204736328125,0.0300999991595745,-0.0066999997943639,0.0749999955296516,0.0471587963402271,0.0145385926589369,0.0131248757243156
6.561900390625,-0.0754999965429306,-0.0552999973297119,-0.1779999881982803,0.0256039798259735,-0.0124267442151904,0.018291050568223
6.581753662109375,0.0683999955654144,-0.0213999990373849,-0.1086999997496604,-0.0108908545225858,0.0128979831933975,0.0258832331746816
6.601605224609375,0.0797000005841255,-0.1080999970436096,0.1165999993681907,-0.0046076690778136,0.0334405079483985,0.0333532430231571
6.621458251953125,0.0553999990224838,-0.1078999936580658,0.0093000000342726,0.0098262038081884,0.0195302348583936,0.0343306250870227
6.641311279296875,-0.0106999995186924,-0.0810000002384185,-0.2251999974250793,-0.0121823977679014,-0.0030543261673301,0.0162315610796213
6.661164306640625,-0.0315000005066394,-0.0298999994993209,-0.0785999968647956,-0.0455356389284133,0.000488692196086,0.0035081116948276
6.68101611328125,0.0074999998323619,-0.0113999992609024,0.1061000004410743,-0.04775220900774,0.0076096355915069,0.0089011788368225
6.700869140625,0.0575999990105629,-0.061099998652935,0.2124999910593032,-0.0325678437948226,-0.0033510322682559,0.0277856420725584
6.72072216796875,0.1343999952077865,-0.123999997973442,0.0249999985098838,-0.0166678950190544,0.0105766952037811,0.0194778740406036
6.74057373046875,-0.0407999977469444,-0.1210999935865402,0.0833999961614608,-0.0164933614432811,0.0332310684025287,-0.0121474917978048
6.760425537109375,-0.1026999950408935,0.0197999998927116,0.2110999971628189,-0.0132470494136214,0.017854718491435,-0.0206123385578393
6.780278564453125,-0.0593999996781349,-0.0162000004202127,0.0148999998345971,-0.001832595677115,0.0009250245057046,-0.0111701069399714
6.800131591796875,0.1468999981880188,-0.0741999968886375,-0.1517999917268753,-0.0108210416510701,-0.0068940506316721,-0.0392873622477054
6.819984619140625,0.0780999958515167,0.046399999409914,-0.0443999990820884,-0.0156032433733344,-0.0127234505489468,-0.0629365742206573
6.83983642578125,0.1363999992609024,0.0705999955534935,-0.0746999979019165,-0.008656833320856,0.011013027280569,-0.0589397698640823
6.859689453125,0.0815000012516975,0.093199998140335,-0.0746999979019165,-0.0315904580056667,0.0118856923654675,-0.0544019117951393
6.87954248046875,0.0363999977707862,0.1299999952316284,0.1596999913454055,-0.0667064860463142,-0.0057944930158555,-0.0401251204311847
6.89939404296875,0.0363999977707862,0.0749999955296516,0.5105000138282776,-0.0293215308338403,-0.0296531431376934,-0.0152367241680622
6.9192470703125,0.0502999983727932,0.0714999958872795,0.2635000050067901,0.0362504869699478,-0.0051487213931977,-0.00692895706743
6.9391005859375,0.1180000007152557,0.0648999959230423,-0.1079999953508377,0.0384845100343227,0.016545720398426,-0.0126187307760119
6.958951904296875,0.0135999992489814,0.0870999991893768,-0.1749999970197677,-0.0151843642815947,0.0074525559321045,0.0087440991774201
6.97880517578125,0.0832000002264976,0.0210999995470047,0.0304999984800815,-0.0459370650351047,-0.0196698606014251,0.0287106651812791
6.998658203125,0.0095999995246529,-0.0982000008225441,0.1560000032186508,-0.033789575099945,-0.034889131784439,0.0266860835254192
7.018511474609375,0.1391000002622604,-0.0530999973416328,0.0461999997496604,-0.0235793981701135,-0.0252200067043304,0.0211882963776588
7.038363037109375,0.1136999949812889,0.0195000004023313,0.0252000000327825,-0.0056199603714048,0.0138753671199083,-0.0016406094655394
7.058216064453125,0.0279999990016222,0.0009999999310821,0.0154999997466802,0.0196349546313285,0.0112748267129063,-0.0013613568153232
7.078069091796875,0.0397999994456768,-0.0810999944806099,-0.2581000030040741,0.0169122405350208,0.0006981316837482,-0.0091455252841115
7.0979208984375,0.030299998819828,-0.0841000005602836,-0.2378999888896942,-0.0393397212028503,-0.0060911988839507,-0.0184830371290445
7.11777392578125,0.0001999999949475,-0.0563999973237514,0.2115999907255172,-0.0622908025979995,0.00013962633966,-0.0306479819118976
7.137626953125,-0.0282999984920024,0.0052999998442828,0.4449999928474426,0.0083077671006321,0.0289026517421007,-0.0286583062261343
7.15747998046875,-0.0023000000510364,0.0043999999761581,0.0829999968409538,0.0473507829010486,0.0353603698313236,-0.0193382482975721
7.177331787109375,-0.0341999977827072,0.0153999999165534,-0.1890999972820282,0.0057246801443398,0.0061261057853698,-5.23598791914e-05
7.197184814453125,0.0158999990671873,0.0436999984085559,-0.1692000031471252,-0.0512428656220436,-0.0269653368741273,0.0075572757050395
7.217037841796875,0.1671999990940094,0.1023999974131584,0.0539999976754188,-0.0616973899304866,-0.0126187307760119,-0.003735004691407
7.236889404296875,0.1842999905347824,0.0652999952435493,0.3164999783039093,-0.0261973924934864,0.0050090947188436,-0.0088313659653067
7.25674267578125,0.1362999975681305,0.0214999988675117,0.296099990606308,0.0189368221908807,0.0193207953125238,-0.0048171086236834
7.296447265625,-0.0414999984204769,0.0198999997228384,-0.02449999935925,0.0295484233647584,0.0172962136566638,0.0002967059845104
7.31630029296875,-0.0383000001311302,0.0238999985158443,-0.1015999987721443,0.0055326935835182,0.0030543261673301,0.0116238929331302
7.336153564453125,-0.0674999952316284,-0.0361000001430511,-0.0032999999821186,-0.0362853966653347,-0.0306654348969459,0.0387463085353374
7.3560068359375,0.032999999821186,-0.1378999948501587,0.2105000019073486,-0.0324107632040977,-0.0213977359235286,0.0419228076934814
7.375858154296875,0.1156999990344047,-0.152099996805191,0.2676999866962433,0.0255516208708286,0.0219911485910415,0.0145560456439852
7.395711181640625,0.0212999992072582,-0.0590999983251094,0.0238999985158443,0.0540703013539314,0.0383972451090812,0.0021118484437465
7.415564453125,-0.0987999960780143,0.0285000000149011,-0.3558999896049499,0.0018675023457035,0.0055850534699857,0.0274714827537536
7.435416015625,-0.0593999996781349,-0.0213999990373849,-0.2575999796390533,-0.0717155784368515,-0.0140673536807298,0.045238934457302
7.455269287109375,0.0441999994218349,0.0010999999940395,0.1612999886274337,-0.0721519142389297,-0.011833332479,0.0323758572340011
7.475122314453125,0.1683000028133392,0.0142999999225139,0.2960000038146972,-0.0102101759985089,0.0204028990119695,0.010681414976716
7.494975341796875,0.122699998319149,0.0355999991297721,0.0607999972999095,0.0377340167760849,0.0303512755781412,0.011938052251935
7.5148271484375,0.0103000001981854,0.0966999977827072,-0.1333999931812286,0.019390607252717,0.0352905578911304,0.0232128798961639
7.53468017578125,-0.061999998986721,0.1021999940276146,-0.0926999971270561,-0.0154810706153512,0.0238237436860799,0.0248883944004774
7.55453173828125,0.0101999994367361,0.0359000004827976,0.0053999996744096,-0.0216595362871885,0.0144862327724695,0.0299323964864015
7.574384765625,0.1885000020265579,-0.1272999942302703,-0.1125999987125396,-0.0036128314677625,-0.0031764991581439,0.0198269393295049
7.594238037109375,0.0399999991059303,-0.0681999996304512,-0.2402999997138977,-0.015446163713932,-0.0083775799721479,0.0135612078011035
7.614091064453125,-0.0797999948263168,-0.0458000004291534,0.1609999984502792,-0.0634601712226867,-0.0113271865993738,0.0332310684025287
7.633942626953125,0.0149999996647238,-0.0447000004351139,0.4333999752998352,-0.0561996027827262,-0.0065973447635769,0.0433888845145702
7.653795654296875,0.0907000005245208,-0.1525000035762787,0.3921999931335449,-0.0139451809227466,-0.004084070213139,0.0389557480812072
7.673647216796875,0.0788000002503395,-0.0524999983608722,-0.0298999994993209,-0.0024260077625513,-0.0076794484630227,0.0279776286333799
7.69350048828125,-0.0215999986976385,0.0061999997124075,-0.1282999962568283,-0.0432318039238452,-0.0219038818031549,0.0303163696080446
7.71335205078125,0.0907000005245208,-0.0055999998003244,0.1050999984145164,-0.06155776232481,-0.014102260582149,0.035168383270502
7.733205078125,0.1946000009775161,-0.0533999986946582,0.1027999967336654,-0.031433381140232,-8.72664604685e-05,0.0298974905163049
7.753059814453125,0.222800001502037,0.0206000003963708,-0.1727000027894973,-0.0106639619916677,0.0226718261837959,0.0195825938135385
7.772911376953125,0.1184999942779541,0.0222999993711709,-0.1528999954462051,-0.0262497514486312,0.0636521577835083,0.0066147977486252
7.792762939453125,-0.0166999995708465,0.0957999974489212,0.0143999997526407,-0.0308225136250257,0.0934449285268783,0.0205250717699527
7.812617431640625,0.3337000012397766,-0.0947000011801719,1.0256999731063845,0.3110874891281128,0.271293967962265,0.0095818573608994
7.832468994140625,0.0027999999001622,-0.0565999969840049,-0.5956999659538269,0.2122844010591507,0.0933925658464431,-0.0344004407525062
7.852322265625,-0.3312000036239624,0.4230999946594238,-0.8513000011444092,-0.1218937933444976,-0.1094146892428398,-0.0213104709982872
7.872173828125,-0.5180999636650085,0.1722999960184097,0.0833999961614608,-0.2913303673267364,-0.2009397596120834,0.0479441955685615
7.89202685546875,-0.0285999998450279,0.1386999934911728,0.9911999702453612,-0.2000496387481689,-0.1998576521873474,0.0896226540207862
7.9118798828125,0.2732999920845032,-0.0896999984979629,1.0293999910354614,-0.0446455217897892,-0.2014633566141128,0.076619952917099
7.9317333984375,0.4575999975204468,-0.2004999965429306,0.4545999765396118,0.0829380452632904,-0.0919788479804992,0.0147480322048068
