seconds_elapsed,accel_x,accel_y,accel_z,gyro_x,gyro_y,gyro_z
0.196573974609375,0.1509999930858612,0.014699999243021,-0.5087000131607056,-6.981316983e-05,0.0206821523606777,0.030124383047223
0.216425537109375,0.1509999930858612,0.014699999243021,-0.5087000131607056,-6.981316983e-05,0.0206821523606777,0.030124383047223
0.236278564453125,0.0111999996006488,-0.0173000004142522,-0.1070000007748603,-6.981316983e-05,0.0206821523606777,0.030124383047223
0.256131591796875,-0.065700002014637,-0.1111999973654747,0.186599999666214,-6.981316983e-05,0.0206821523606777,0.030124383047223
0.27598486328125,-0.1708000004291534,-0.0687999948859214,0.460999995470047,-6.981316983e-05,0.0206821523606777,0.030124383047223
0.29583642578125,-0.0562999993562698,-0.0666999965906143,0.1066999956965446,-6.981316983e-05,0.0206821523606777,0.030124383047223
0.315689453125,-0.030299998819828,-0.1031999960541725,-0.1101999953389167,-6.981316983e-05,0.0206821523606777,0.030124383047223
0.33554248046875,-0.0101999994367361,-0.1368999928236007,0.0009999999310821,-6.981316983e-05,0.0206821523606777,0.030124383047223
0.35539404296875,0.04449999704957,-0.1841000020503997,0.1287999898195266,0.0231256131082773,0.0206821523606777,0.0191288087517023
0.375247314453125,0.1353999972343444,-0.1052000001072883,-0.06700000166893,0.0182386897504329,0.0243473425507545,0.0191288087517023
0.395100341796875,0.2292999923229217,-0.1105999946594238,-0.0974999964237213,0.0056897732429206,0.0390255637466907,0.0093724178150296
0.414953369140625,0.0980999991297721,-0.0947000011801719,0.0093999998643994,-0.0032288590446114,0.0482583530247211,-0.0124267442151904
0.434804931640625,0.0031999999191612,-0.0082999998703598,0.0847999975085258,0.0045727626420557,0.0492706447839736,-0.0210486706346273
0.454658203125,0.0154999997466802,0.0815000012516975,0.1339000016450882,0.0060039325617253,0.0517664663493633,-0.012025318108499
0.474511474609375,0.0852999985218048,0.0883999988436698,0.1245999932289123,0.0075223692692816,0.0277507342398166,-0.0065624378621578
0.49436279296875,0.061499997973442,0.0260999985039234,0.0755999982357025,0.0038571776822209,-0.010245082899928,-0.0146433124318718
0.5142158203125,0.1033999994397163,0.0956999957561492,-0.150299996137619,0.0035953782498836,0.0082030473276972,-0.0123743843287229
0.534067626953125,0.1572999954223632,0.0789999961853027,-0.1700000017881393,-0.0183259565383195,0.038222711533308,-0.0161442961543798
0.553920654296875,0.0561999976634979,0.0093999998643994,0.123999997973442,-0.0304385423660278,0.0344178937375545,-0.0257086995989084
0.57377392578125,0.0571999996900558,-0.0046000001020729,0.3095999956130981,-0.003071779385209,-0.0062657319940626,-0.0338942930102348
0.593626953125,0.060199998319149,0.0152999991551041,0.0736000016331672,0.0279078148305416,-0.0357094369828701,-0.052307516336441
0.613478759765625,0.065600000321865,0.17009998857975,-0.2789999842643738,0.0177674517035484,-0.0031241392716765,-0.0618021078407764
0.633330078125,-0.1215000003576278,0.1934999972581863,-0.1689999997615814,-0.0062657319940626,0.0309621412307024,-0.0453261993825435
0.653183349609375,-0.1317999958992004,0.0519999973475933,0.1264999955892563,-0.0239808242768049,0.011693705804646,-0.017034413293004
0.673036376953125,0.0857999995350837,-0.062399998307228,0.2046999931335449,-0.0134390350431203,-0.0200538337230682,-0.0367042757570743
0.6928896484375,-0.006000000052154,0.0184000004082918,0.2529999911785126,0.0236841179430484,-0.0208566840738058,-0.0647342652082443
0.71274267578125,-0.1537999957799911,0.091399997472763,0.0379999987781047,0.0518013723194599,-0.0203330852091312,-0.0500734969973564
0.73259423828125,-0.1612999886274337,0.0597999989986419,-0.2345999926328659,0.0202807262539863,0.0050440016202628,-0.0307527016848325
0.752447265625,-0.1917999982833862,-0.0238999985158443,-0.0662999972701072,-0.0254992600530385,0.0095818573608994,-0.0201236456632614
0.77230029296875,-0.1736999899148941,-0.0286999996751546,0.2278999984264373,-0.0128979831933975,-0.0013089969288557,-0.0105068823322653
0.792152099609375,-0.1386999934911728,-0.0158999990671873,0.1298999935388565,0.0097912969067692,-0.0270176958292722,0.0003316125657875
0.812005126953125,-0.0016999999061226,-0.0659999996423721,-0.1542000025510788,-0.002565633971244,-0.0201934594660997,0.0114144533872604
0.831858154296875,0.1041999980807304,-0.1030000001192092,-0.0958999991416931,-0.034784410148859,-3.4906584915e-05,-0.0067718774080276
0.851709716796875,0.0848999992012977,-0.0935999974608421,0.1380999982357025,-0.0161442961543798,0.0089186327531933,-0.0364773795008659
0.87156298828125,-0.087799996137619,0.0777999982237815,0.088699996471405,0.0184132233262062,0.0028448866214603,-0.0527613013982772
0.891416015625,-0.2194999903440475,0.2491999864578247,-0.1256999969482422,0.0291819050908088,0.0138928210362792,-0.0337023064494133
0.911267578125,-0.3750999867916107,0.181099995970726,-0.1624999940395355,-0.020699605345726,0.03560471534729,0.0146956723183393
0.93112060546875,-0.1570999920368194,0.0157999992370605,0.210999995470047,-0.0634427145123481,0.0011693706037476,0.0570548139512538
0.950973876953125,0.1472999900579452,-0.0810000002384185,0.4153999984264374,-0.0637045204639434,-0.0454309210181236,0.0442091897130012
0.970825439453125,0.2830999791622162,-0.0784000009298324,0.4615999758243561,-0.0019896754529327,-0.0211533904075622,-0.008272860199213
0.990678466796875,0.0328000001609325,-0.0665999948978424,0.2942000031471252,0.0735132694244384,0.0139626339077949,-0.0492182858288288
1.010531494140625,-0.2078999876976013,0.0676999986171722,-0.0565999969840049,0.0887674465775489,0.010245082899928,-0.0478394739329814
1.030385009765625,-0.3093000054359436,0.148499995470047,-0.3574999868869781,0.0284139607101678,-0.0285535864531993,-0.0215548165142536
1.050236328125,-0.2502999901771545,0.2283999919891357,-0.375900000333786,-0.0298974905163049,-0.0216595362871885,0.0131597826257348
1.07008935546875,-0.1323999911546707,0.1031999960541725,-0.0722000002861023,-0.0266686305403709,0.0199491139501333,0.0278030950576066
1.089942626953125,-0.1352999955415725,0.0274000000208616,0.2026000022888183,0.0061784656718373,0.0479791015386581,0.0174707453697919
1.1097939453125,-0.2399999946355819,0.02449999935925,0.1551999896764755,0.0259530451148748,0.0433714315295219,0.0193557012826204
1.1296474609375,-0.2178999930620193,0.0375999994575977,0.1083999946713447,0.0133343152701854,0.0118507854640483,0.0417308211326599
1.14950048828125,-0.046399999409914,-0.0447000004351139,-0.0179999992251396,-0.0124267442151904,-0.0224274806678295,0.0567581057548522
1.169353515625,0.0771999955177307,-0.17009998857975,0.0498999990522861,-0.0140499006956815,-0.0080110616981983,0.0417482741177082
1.189205078125,0.1146999970078468,-0.1568999886512756,-0.1271999925374984,0.0146258594468235,0.030560715124011,0.0211010314524173
1.209058349609375,0.1686999946832656,-0.1482999920845031,-0.2540000081062317,0.0035430183634161,0.0474031418561935,0.0154810706153512
1.228911376953125,0.2161999940872192,-0.0898999944329261,-0.086399994790554,-0.0320267900824546,0.0128630762919783,0.0077318083494901
1.248762939453125,0.2370999902486801,-0.1026999950408935,0.0106999995186924,-0.0397586002945899,-0.0111352009698748,-0.0023736478760838
1.268615966796875,0.2919999957084656,-0.0744000002741813,0.0188999995589256,-0.0230034403502941,0.0115191731601953,-0.028483772650361
1.28846923828125,0.1555999964475631,9.99999974737e-05,0.0573999993503093,-0.0025132740847766,0.0475776754319667,-0.0401600264012813
1.308322265625,0.1046999990940094,0.0903000012040138,0.1951999962329864,-0.0163188278675079,0.028483772650361,-0.0333357900381088
1.328173828125,0.0892999991774559,0.1433999985456466,0.3716000020503998,-0.0232826918363571,-0.0259879529476165,-0.0200712867081165
1.34802685546875,0.1118999943137168,0.118999995291233,0.4289999902248382,-0.0064577180892229,-0.0489564836025238,-0.0204028990119695
1.367878662109375,-0.045899998396635,0.1890999972820282,0.447299987077713,0.0413468480110168,-0.0328645482659339,-0.0298451296985149
1.387731689453125,-0.1899999976158142,0.2201999872922897,0.1437999904155731,0.069568820297718,-0.0326202027499675,-0.0069813169538974
1.407584716796875,-0.1187999993562698,0.1463999897241592,-0.2273999899625778,0.044139377772808,-0.0531976372003555,0.0112399207428097
1.427437744140625,-0.1291999965906143,0.1955000013113021,-0.0700999945402145,0.0046425759792327,-0.0441219247877597,0.0230208933353424
1.44728955078125,-0.3046000003814697,-0.0030999998562037,0.0763999968767166,0.0240506362169981,-0.0275587495416402,0.0337372161448001
1.467142578125,-0.1433999985456466,-0.0484999977052211,-0.0702999979257583,0.041399210691452,-0.0124441972002387,0.0394095331430435
1.48699560546875,-0.1067999973893165,-0.1263999938964843,-0.1279999911785125,0.0177674517035484,-0.007574729155749,0.0378038324415683
1.50684716796875,0.0775999948382377,-0.1991999894380569,-0.1374000012874603,-0.0050614546053111,-0.0318348072469234,0.0250629279762506
1.5267001953125,0.1395999938249588,-0.1885000020265579,-0.089099995791912,-0.000663225131575,0.006998770404607,-0.0135786617174744
1.5465537109375,-0.1912999898195266,-0.1481999903917312,0.1363999992609024,0.035168383270502,0.0363203026354312,-0.0264068320393562
1.56640673828125,-0.1922999918460846,-0.0263999998569488,-0.1756999939680099,0.0253247264772653,0.0208566840738058,0.0052534411661326
1.586258056640625,0.0084999995306134,-0.0504000000655651,-0.2529999911785126,-0.0508938021957874,-0.0024783674161881,0.0261799395084381
1.606111328125,0.1351999938488006,-0.0795999988913536,0.1473999917507171,-0.0715584978461265,-0.0143291531130671,0.0234921313822269
1.625964599609375,0.1317999958992004,-0.1925999969244003,0.2724999785423279,-0.0110304811969399,-0.0057595865800976,-0.0020420351065695
1.645816162109375,0.140299990773201,-0.0324999988079071,0.046399999409914,0.0267908032983541,0.027052603662014,-0.0275936555117368
1.665669189453125,-0.0106999995186924,0.0712999999523162,-0.0896999984979629,0.0008901178953237,0.0305956210941076,-0.0261799395084381
1.685522216796875,0.0151999993249773,0.1503999978303909,0.0087999999523162,-0.0366868190467357,-0.0062831854447722,-0.0075572757050395
1.7053740234375,0.0432999990880489,0.1379999965429306,0.1448999941349029,-0.0380481779575347,-0.0097738439217209,-0.0023387412074953
1.72522705078125,0.0116999996826052,0.1158000007271766,0.3299999833106994,-0.005410520825535,0.0027401668485254,0.0015184364747256
1.745080078125,0.0802999958395958,0.1262999922037124,0.1925999969244003,0.019390607252717,0.0053756139241158,-0.0097563909366726
1.76493310546875,0.0320999994874,0.1319999992847442,0.1343999952077865,0.023771384730935,-0.0204028990119695,-0.0089360857382416
1.784784912109375,0.0767999961972236,0.185599997639656,-0.0219999998807907,0.0184132233262062,-0.028204521164298,0.0013962633674964
1.804637939453125,-0.0270999986678361,0.0145999994128942,-0.0317999981343746,0.0118158785626292,0.0039095375686883,-0.0026878069620579
1.824490966796875,-0.0852999985218048,-0.0370999984443187,0.1450999975204467,0.0133168622851371,0.0045553091913461,-0.0041015236638486
1.844342529296875,-0.1333999931812286,-0.0495999976992607,0.2043999880552292,0.019442968070507,-0.0183783173561096,0.0061261057853698
1.86419580078125,0.049100000411272,-0.1123999953269958,-0.0307000000029802,0.0227940008044242,-0.0545589923858642,0.0080110616981983
1.884048828125,0.1164999976754188,-0.175599992275238,-0.2664999961853027,0.0139975408092141,-0.022287854924798,-0.0154112568125128
1.903900390625,0.0731000006198883,-0.2069000005722046,-0.2175999879837036,0.0063006384298205,0.0278380010277032,-0.0394968017935752
1.92375341796875,-0.0381000004708766,-0.1086999997496604,-0.0698999986052513,-0.0068416907452046,0.0432841666042804,-0.061278510838747
1.94360498046875,-0.1946000009775161,0.0509999990463256,0.1463999897241592,-0.0021118484437465,0.0198967531323432,-0.0509636141359806
1.963458251953125,-0.1985999941825866,0.1211999952793121,0.0878999978303909,0.0071733030490577,-0.0073827425949275,-0.0249058492481708
1.983311279296875,-0.1692000031471252,0.1105000004172325,-0.0785999968647956,0.0051836278289556,0.0033684854861348,-0.0137008344754576
2.003164306640625,-0.1573999971151352,0.0898999944329261,-0.1174999997019767,-0.0097912969067692,0.031328659504652,0.0090058986097574
2.023015869140625,-0.0232999995350837,0.0423999987542629,0.0396999977529048,-0.0284488666802644,0.0296880509704351,0.0259704999625682
2.042869140625,0.0802000015974044,0.0275999996811151,0.2062999904155731,-0.0319220721721649,-0.0056897732429206,0.0256912466138601
2.062720703125,0.1080999970436096,-0.0157999992370605,0.1955000013113021,0.0020594885572791,-0.010925761424005,0.0113620935007929
2.08257373046875,0.0175000000745058,-0.016499999910593,-0.0594999976456165,0.0273144021630287,0.0152192711830139,0.0113097336143255
2.102427001953125,0.0497999973595142,-0.0124999992549419,-0.1955999881029129,-0.0055501470342278,0.0374198593199253,0.0259181391447782
2.122278564453125,0.1537999957799911,-0.1098999977111816,0.1087999939918518,-0.0501433089375495,0.0013439034810289,0.0221656821668148
2.142131591796875,0.1627999991178512,-0.0709000006318092,0.3916999995708465,-0.0258308723568916,-0.0291644521057605,0.0038571776822209
2.16198486328125,0.1074000000953674,-0.065600000321865,0.1648000031709671,0.0252200067043304,-0.010349802672863,-0.0196873135864734
2.181837890625,-0.0806000009179115,0.0084999995306134,-0.0603000000119209,0.0411025024950504,0.0236492119729518,-0.0376292988657951
2.201689697265625,-0.2514999806880951,0.0896999984979629,-0.1568000018596649,0.0151494583114981,0.0184132233262062,-0.0032812189310789
2.221542724609375,-0.1004999950528144,0.0573999993503093,-0.1362999975681305,-0.031328659504652,-0.0166853480041027,0.0172089468687772
2.241395751953125,-0.0156999994069337,0.0630000010132789,0.0192999988794326,-0.0402647443115711,-0.0290771853178739,0.0202981792390346
2.261247314453125,-0.0607999972999095,0.0407999977469444,0.0666999965906143,-0.0067893308587372,0.0238411966711282,0.0050789080560207
2.281100341796875,-0.124499998986721,0.0810000002384185,0.0082000000402331,0.0101229092106223,0.0419751666486263,0.0161792021244764
2.30095361328125,-0.0281999986618757,0.0685999989509582,-0.0590999983251094,-0.0279776286333799,0.0185179430991411,0.036966074258089
2.320806640625,0.1802999973297119,-0.0346999987959861,0.097300000488758,-0.0512777715921402,-0.0211184844374656,0.0218864288181066
2.340658203125,0.155699998140335,-0.0252999998629093,0.2621999979019165,-0.0097738439217209,-0.0018675023457035,-0.0039444440044462
2.36051123046875,0.0668999999761581,0.005899999756366,0.1147999987006187,0.0430747270584106,0.0344004407525062,-0.0278205480426549
2.380364501953125,-0.0531999990344047,0.0958999991416931,-0.1872999966144561,0.026616271585226,0.0322536826133728,-0.0090582584962248
2.400216064453125,0.0313999988138675,0.1101999953389167,-0.1367999911308288,-0.0425336733460426,0.0003665191470645,0.0257785134017467
2.420069091796875,0.1970999985933303,-0.0292999986559152,0.2639999985694885,-0.0638092383742332,-0.0276460144668817,0.0224274806678295
2.439922119140625,0.2491999864578247,-0.0762999951839447,0.4968999922275543,0.0057246801443398,-0.0231430660933256,-0.0140499006956815
2.45977392578125,0.08729999512434,0.0208999998867511,0.1533000022172927,0.0736877992749214,0.0025132740847766,-0.0392000935971736
2.479626953125,0.0,0.095499999821186,-0.2759999930858612,0.0462861321866512,0.0041887899860739,-0.0165631752461195
2.49947998046875,0.0398999974131584,0.0277999993413686,-0.2158999890089035,-0.0330565348267555,-0.0179419852793216,0.0083775799721479
2.5193330078125,0.1237999945878982,-0.1423999965190887,0.1749999970197677,-0.0492880977690219,-0.0445233508944511,-0.003246312495321
2.539184814453125,0.1242999956011772,-0.0933999940752983,0.2608999907970428,0.0058992127887904,-0.0138404611498117,-0.0329169109463691
2.559037841796875,-0.0054999999701976,-0.0249999985098838,0.0645999982953071,0.0479616485536098,0.0022514746524393,-0.0390953756868839
2.57889111328125,-0.0044999998062849,0.0742999985814094,-0.1987999975681305,0.0132645023986697,-0.0102276289835572,-0.0266511775553226
2.598742431640625,-0.0649999976158142,0.023199999704957,-0.0907999947667121,-0.0267733503133058,-0.0238237436860799,-0.0235793981701135
2.618595947265625,-0.0692000016570091,0.0483999997377395,0.1432999968528747,-0.0153588969260454,-0.0065624378621578,-0.0221133213490247
2.638448974609375,-0.1384999901056289,0.061499997973442,0.2309999912977218,0.0142942462116479,0.0091629782691597,-0.0219911485910415
2.658302001953125,-0.1850000023841858,0.1275999993085861,0.1040999963879585,0.0247487686574459,-0.002164208330214,-0.0089360857382416
2.678153564453125,-0.0867999941110611,0.1324999928474426,-0.1107999980449676,0.0025307273026555,-0.01385791413486,0.0137357413768768
2.6980068359375,-0.1287000030279159,-0.015599999576807,0.0850999951362609,-0.0078016216866672,0.0021991147659718,0.0233525056391954
2.7178583984375,-0.0793999955058097,-0.0342999994754791,0.0653999969363212,0.0006981316837482,0.0039095375686883,0.0266511775553226
2.73771142578125,-0.0299999993294477,-0.1231999993324279,0.0654999986290931,0.0,0.0047647487372159,0.0279950816184282
2.757564453125,0.1075999960303306,-0.1430999934673309,-0.140199989080429,-0.008517206646502,-0.0028623400721699,0.0176452789455652
2.777417724609375,0.1555999964475631,-0.1512999981641769,-0.0326999984681606,-0.0093549648299813,0.0126361837610602,0.0003839724231511
2.797269287109375,0.0305999983102083,-0.1293999999761581,0.0455999970436096,0.003735004691407,0.0243298895657062,-0.02179916203022
2.817122314453125,-0.0720999985933303,0.0274999998509883,-0.012699999846518,0.0040142573416233,0.0215024556964635,-0.0224274806678295
2.836975341796875,-0.1063999980688095,0.0763999968767166,-0.0513999983668327,-0.0061610122211277,0.0103148957714438,0.0025307273026555
2.856826904296875,0.0916999951004982,0.0579000003635883,-0.1395999938249588,-0.029304077848792,0.000977384392172,0.0178198125213384
2.87668017578125,0.0912999957799911,-0.0052000000141561,0.0164000000804662,-0.0353080108761787,0.028483772650361,0.0036477381363511
2.896533203125,0.0180999990552663,0.0112999994307756,0.2904999852180481,-0.011257373727858,0.0370707921683788,0.008080874569714
2.91638623046875,0.0640999972820282,0.0133999995887279,0.2516999840736389,-0.0037000980228185,0.0152716310694813,0.0146433124318718
2.93623779296875,0.1642999947071075,-0.0251000002026557,0.1929999887943267,-0.0190415419638156,-0.0316253677010536,0.0040491637773811
2.956091064453125,0.1085999980568885,0.0078999996185302,0.123099997639656,0.0046949358657002,-0.0268780700862407,-0.0125314639881253
2.975942626953125,-0.0631999969482421,0.0072999997064471,-0.0340999998152256,0.0295833311975002,0.0128805302083492,-0.0089709926396608
2.995795654296875,-0.0115999998524785,0.0409999974071979,-0.18019999563694,0.0068242372944951,0.0266337245702743,-0.0029845130629837
3.015647216796875,0.0030999998562037,0.0788999944925308,0.1341999918222427,-0.0230557993054389,5.23598791914e-05,0.0092502450570464
3.035502197265625,0.0810000002384185,0.0732999965548515,0.2513000071048736,0.0008552113431505,-0.028204521164298,0.0083775799721479
3.055353515625,0.0259999986737966,0.0335999988019466,0.1133999973535537,0.0364424735307693,-0.016545720398426,0.0051836278289556
3.07520654296875,-0.065700002014637,0.0165999997407197,-0.1014999970793724,0.0320093370974063,0.0068591437302529,0.0094422316178679
3.09505810546875,-0.0352999977767467,-0.0191999990493059,-0.1396999955177307,-0.0057770400308072,0.0042411498725414,0.030508354306221
3.1149111328125,0.1310999989509582,-0.1068999990820884,0.0561999976634979,-0.0341386385262012,-0.0092676980420947,0.0272794961929321
3.1347646484375,0.1085999980568885,-0.1300999969244003,0.280599981546402,-0.0031415927223861,-0.0063006384298205,0.0006108652451075
3.15461767578125,0.0187999997287988,-0.1094999983906745,0.201799988746643,0.0490088462829589,-0.0163886416703462,-0.0052883476018905
3.17446923828125,-0.0725999996066093,-0.0009999999310821,-0.1796000003814697,0.0351858362555503,-0.0070860367268323,-0.0006981316837482
3.194322265625,-0.0543999969959259,-0.0466999970376491,-0.2179999947547912,-0.0271747764199972,-0.0268431641161441,0.0282219741493463
3.214175537109375,0.1256999969482422,-0.1005999967455864,-0.1114000007510185,-0.0539655797183513,-0.0259181391447782,0.0208566840738058
3.234027099609375,0.090499997138977,-0.0607999972999095,0.121799997985363,-0.0283441469073295,0.0091455252841115,-0.0084473937749862
3.253880126953125,-0.0841000005602836,0.0137000000104308,0.2485999912023544,0.0232128798961639,0.0183259565383195,-0.0148876588791608
3.273733154296875,-0.1096000000834465,0.0977999940514564,-0.0150999994948506,0.0177674517035484,-0.0023038345389068,-0.0054803336970508
3.2935849609375,-0.0313999988138675,0.0650999993085861,-0.0832999944686889,-0.0220609623938798,-0.0340164676308631,0.0126187307760119
3.31343798828125,0.157600000500679,0.0298999994993209,-0.1140000000596046,-0.0310145001858472,-0.0182037837803363,-0.00132645026315
3.333291015625,-0.0126000000163912,0.0554999969899654,0.0907000005245208,-0.0034906584769487,0.0470017157495021,-0.0261450316756963
3.353142578125,-0.3261999785900116,0.1055999994277954,0.2680000066757202,0.0241204500198364,0.0470191687345504,-0.0008377580670639
3.372995849609375,-0.199099987745285,0.0517999976873397,0.0538999997079372,-0.0117984255775809,-0.0145734995603561,0.0468446351587772
3.392848876953125,0.1597999930381775,-0.0839999988675117,0.0532999970018863,-0.0618719235062599,-0.0575260519981384,0.0464606657624244
3.412700439453125,0.3531000018119812,-0.1806999891996383,0.1779999881982803,-0.0269129760563373,-0.0497767888009548,0.0055152405984699
3.432553466796875,0.3427999913692474,-0.1262999922037124,-0.0099999997764825,0.0395491607487201,0.0195302348583936,-0.0580671057105064
3.45240673828125,-0.0248999986797571,0.0339999981224536,-0.1458999961614608,0.0518362782895565,0.0752760469913482,-0.0859574675559997
3.47225830078125,-0.3316999971866607,0.2117999941110611,0.0137000000104308,0.0076969019137322,0.0320791527628898,-0.038222711533308
3.492111328125,-0.1767999976873397,0.1814000010490417,0.0733999982476234,-0.0457799844443798,-0.0445233508944511,0.0208217781037092
3.51196435546875,0.0301999989897012,0.0420999974012374,0.2381999939680099,-0.0314682871103286,-0.0383274294435977,0.0179245304316282
3.531817626953125,0.1300999969244003,-0.1089999973773956,0.1973999887704849,0.0315206460654735,0.0206821523606777,-0.0014137167017906
3.551669189453125,-0.1010999977588653,0.0122999995946884,-0.0365999974310398,0.0622384399175643,0.0238062907010316,-0.0114668132737278
3.571522216796875,-0.0861999988555908,0.0592000000178813,-0.2403999865055084,0.0173311196267604,-0.0168424267321825,0.031607910990715
3.591375244140625,0.0370999984443187,-0.0035999999381601,-0.259799987077713,-0.0415737442672252,-0.0395317077636718,0.0483456216752529
3.611226806640625,0.0477999970316886,-0.0553999990224838,0.0421999990940094,-0.0321315117180347,0.0044156829826533,0.0435459651052951
3.631080078125,-0.0013999999500811,-0.1086999997496604,0.1100999936461448,0.0063529983162879,0.0313984714448452,0.0532325431704521
3.650933349609375,0.140299990773201,-0.1206000000238418,0.012699999846518,-0.0258483253419399,0.0111526539549231,0.0601614974439144
3.67078466796875,0.2777000069618225,-0.1653999984264373,0.2768999934196472,-0.0613483227789402,-0.0389732010662555,0.040299654006958
3.690637939453125,0.2782999873161316,-0.1735000014305114,0.4214999973773956,-0.0111002940684556,-0.0533547140657901,0.0046425759792327
3.7104912109375,0.0417999997735023,-0.1414999961853027,0.1357000023126602,0.0496546179056167,-0.0048694685101509,-0.0342782661318779
3.73034423828125,-0.2820000052452087,0.0165999997407197,-0.1964000016450882,0.0433539785444736,0.0193731542676687,-0.0244171563535928
3.75019580078125,-0.3068999946117401,0.0285999998450279,-0.2929999828338623,-0.030892327427864,-0.0092502450570464,0.0199665669351816
3.770048828125,-0.1225999966263771,0.0343999974429607,-0.0095999995246529,-0.0755029395222663,-0.0302116498351097,0.0335626825690269
3.789902099609375,-0.0702999979257583,0.0191999990493059,0.1935999989509582,-0.0232826918363571,-0.0057770400308072,0.0139102740213274
3.809755126953125,-0.1596999913454055,0.0824000015854835,-0.0128999995067715,0.0373325943946838,0.0381354428827762,0.003246312495321
3.829606689453125,-0.2205999940633773,0.2122000008821487,-0.315200001001358,0.0075572757050395,0.048136182129383,0.0289550125598907
3.849459716796875,-0.0350999981164932,0.1510999947786331,-0.2256999909877777,-0.0755902081727981,0.0085870195180177,0.0647342652082443
3.869311279296875,0.210099995136261,0.0465999990701675,0.2333000004291534,-0.0932354852557182,0.0107163218781352,0.0553967505693435
3.8891630859375,0.2302999943494796,-0.0540999993681907,0.6134999990463257,-0.0236143041402101,0.045238934457302,0.0126885436475276
3.909017578125,0.1403999924659729,0.0187999997287988,0.5058000087738037,0.0482932589948177,0.0514523051679134,-0.0211184844374656
3.92887060546875,0.1114000007510185,0.058799996972084,0.2040999978780746,0.044697880744934,0.0028972465079277,-0.0270351506769657
3.94872216796875,0.0731999948620796,0.0995999947190284,0.0287999995052814,0.0219038818031549,-0.0385892279446125,-0.0243647955358028
3.968575439453125,0.0561999976634979,0.0857999995350837,-0.0595999993383884,0.0269653368741273,-0.0139277270063757,-0.0315904580056667
3.988428466796875,-0.0829999968409538,0.1103999987244606,-0.2159999907016754,0.0501258559525013,0.0323409512639045,-0.0341211855411529
4.008280029296875,-0.124899998307228,0.1499999910593032,-0.2727999985218048,0.0267733503133058,0.0466177426278591,-0.0044854963198304
4.028133056640625,-0.0176999997347593,0.0464999973773956,-0.1339000016450882,-0.0219911485910415,0.006754423957318,0.0245044231414794
4.047986328125,0.2375999987125396,-0.0381999984383583,0.1597999930381775,-0.0386590436100959,-0.0082554072141647,0.0195825938135385
4.067839599609375,0.1665000021457672,-0.1096000000834465,0.4134999811649322,0.0150970984250307,0.0121300378814339,-0.0106290550902485
4.08769091796875,0.0903000012040138,-0.0828999951481819,0.2866999804973602,0.0613657757639884,0.0238237436860799,-0.0304559953510761
4.1075439453125,-0.0220999997109174,-0.0548999980092048,-0.0543999969959259,0.0429874584078788,-0.0028797932900488,-0.0213802829384803
4.1273974609375,0.0755999982357025,-0.0529999993741512,-0.1023999974131584,-0.004153883550316,-0.03186971321702,-0.0061959186568856
4.147248779296875,0.1378999948501587,-0.1401000022888183,0.0143999997526407,-0.0146433124318718,-0.0190415419638156,-0.0205250717699527
4.16710205078125,0.1146999970078468,-0.1269000023603439,0.1606999933719635,0.0246615018695592,0.0131946895271539,-0.0493404567241668
4.186955078125,-0.0480999983847141,-0.032600000500679,-0.093299999833107,0.0406836234033107,0.0256912466138601,-0.0580321960151195
4.206806884765625,-0.1303000003099441,0.0982999950647354,-0.1701999902725219,-0.0003665191470645,0.0184655841439962,-0.0374896712601184
4.226659912109375,-0.1354999989271164,0.1284999996423721,0.1143999993801117,-0.030892327427864,-0.0151669112965464,-0.0056199603714048
4.246512939453125,0.0575999990105629,-0.002600000007078,0.1427000015974044,-0.0110304811969399,-0.0260926727205514,-0.0086742863059043
4.266364501953125,0.0722999945282936,-0.0296999998390674,0.0339999981224536,0.0284488666802644,0.0105068823322653,-0.0369311682879924
4.2862177734375,-0.0815000012516975,0.0438999980688095,-0.1611000001430511,0.0352032892405986,0.0448375083506107,-0.0374547652900218
4.30607080078125,-0.120799995958805,0.0965999960899353,-0.031700000166893,0.001239183708094,0.0330739878118038,-0.01284562330693
4.32592236328125,-0.0649999976158142,0.0474999994039535,0.1747999936342239,-0.0200363788753747,-0.0193033423274755,0.0035953782498836
4.345775390625,0.0585999973118305,-0.0074999998323619,0.1640999913215637,-0.006754423957318,-0.0169820543378591,0.0057246801443398
4.365626953125,0.1334999948740005,-0.0455999970436096,0.114499993622303,0.0180990640074014,0.016598081216216,-0.0012042771559208
4.385480224609375,0.1463999897241592,-0.0392000004649162,0.0956999957561492,0.0230557993054389,0.018291050568223,-0.0132295954972505
4.405333251953125,0.130400002002716,0.0055999998003244,0.1261000037193298,0.0198094863444566,0.0022863813210278,-0.0275762025266885
4.425186279296875,-0.0548000000417232,0.0709000006318092,0.0285999998450279,0.0309446882456541,-0.002565633971244,-0.0131423296406865
4.445037841796875,0.0037000000011175,-0.0229000002145767,0.0096999993547797,0.0220784153789281,0.0071383966132998,0.0027576202992349
4.46489111328125,-0.02449999935925,-0.0370000004768371,0.0888999998569488,0.0177674517035484,-0.0003839724231511,0.0051487213931977
4.484744140625,-0.0149999996647238,-0.0405000001192092,0.0599999986588954,0.0227590929716825,-0.0152716310694813,0.0160919353365898
4.50459716796875,0.0009999999310821,-0.0352999977767467,-0.0964999943971633,0.0270176958292722,-0.0180990640074014,0.0194255150854587
4.52444873046875,-0.0812999978661537,-0.0996999964118003,-0.3314999938011169,0.0084648467600345,-0.0136833814904093,0.043755404651165
4.544302001953125,0.1597999930381775,-0.1608999967575073,-0.3610000014305115,-0.0401251204311847,0.006422811653465,0.0691324919462204
4.564155029296875,0.3549000024795532,-0.2522000074386596,0.0300999991595745,-0.075921818614006,0.0108035877346992,0.0552396699786186
4.584006591796875,0.472599983215332,-0.2381999939680099,0.4105999767780304,-0.0598298870027065,-0.0109083075076341,0.0143117001280188
4.603859619140625,0.3614999949932098,-0.1675999909639358,0.5263000130653381,-0.0033335788175463,-0.0328645482659339,-0.0320442467927932
4.623711181640625,0.1590999960899353,-0.0579000003635883,0.19200000166893,0.0432492569088935,-0.0202458184212446,-0.0694815590977668
4.643564453125,-0.1278000026941299,0.0921999961137771,-0.0817999988794326,0.0406138114631176,-0.0061435587704181,-0.0712617933750152
4.66341748046875,-0.3037999868392944,0.193800002336502,-0.1789999902248382,0.0010995573829859,-0.0263544712215662,-0.0304385423660278
4.683270751953125,-0.1316999942064285,0.1648000031709671,-0.189300000667572,-0.0374373123049736,-0.0406312644481658,-0.0104719754308462
4.7031220703125,-0.1393000036478042,0.1622999906539917,0.0539999976754188,-0.0167726147919893,-0.0122347576543688,-0.0068940506316721
4.7229755859375,-0.2296999990940094,0.1458999961614608,0.0140999993309378,0.020263273268938,0.0224972944706678,0.000907571229618
4.74282861328125,-0.2741000056266784,0.1516000032424926,-0.0436000004410743,0.0048869219608604,0.0173834785819053,0.033126350492239
4.76268017578125,-0.0359999984502792,0.0516999997198581,-0.0822999998927116,-0.0421147942543029,-0.014102260582149,0.0602836720645427
4.782533203125,0.2046999931335449,-0.0394000001251697,0.1418000012636184,-0.0508414395153522,0.0008028514566831,0.0461988635361194
4.802386474609375,0.1349000036716461,-0.1384000033140182,0.4149999916553497,0.0008203047327697,0.0161617491394281,0.0248185824602842
4.822239501953125,0.117599993944168,-0.1290999948978424,0.2387999892234802,0.036145769059658,0.0109606673941016,0.0034557518083602
4.842091064453125,0.0410999990999698,-0.1163999959826469,0.092799998819828,0.0159697625786066,-0.016266468912363,0.0029321531765162
4.861944091796875,0.18469999730587,-0.1486999988555908,-0.0442999973893165,0.0005934119690209,-0.0434586964547634,-0.0056548668071627
4.88179736328125,0.185599997639656,-0.0896999984979629,-0.280599981546402,0.01385791413486,-0.0035953782498836,-0.0348018668591976
4.90164892578125,-0.0300999991595745,0.0554999969899654,-0.2802999913692474,0.012269664555788,0.0648738890886306,-0.0398284122347831
4.921501953125,-0.2419999986886978,0.1421999931335449,0.0643999949097633,-0.0129677960649132,0.0638790503144264,-0.0052534411661326
4.94135498046875,-0.1215999945998191,0.0957999974489212,0.2026000022888183,-0.0447676964104175,-0.0125314639881253,0.0432492569088935
4.961206787109375,0.3549999892711639,-0.0630000010132789,0.210899993777275,-0.0452738404273986,-0.0543320998549461,0.0477347560226917
4.981059814453125,0.5583999752998352,-0.1237000003457069,0.1790999919176101,-0.0123045714572072,-0.0096865771338343,-0.0124616511166095
5.000911376953125,0.3501999974250793,-0.0816999971866607,0.2569999992847442,0.038222711533308,0.0274016689509153,-0.0694466531276702
5.020765869140625,0.0821999981999397,0.1181999966502189,0.1112999990582466,0.0486423261463642,0.0016406094655394,-0.0741590410470962
5.040615966796875,0.0152999991551041,0.2179999947547912,-0.0539999976754188,0.0118507854640483,-0.0413119420409202,-0.0484328866004943
5.060470703125,0.1354999989271164,0.1281999945640564,0.1022999957203865,0.0008552113431505,-0.0415388345718383,-0.0461639575660228
5.080322265625,0.0595999993383884,0.0797999948263168,0.2387999892234802,0.0404392778873443,-0.0194953270256519,-0.0655196607112884
5.10017529296875,-0.0995999947190284,0.1415999978780746,0.1022999957203865,0.0789412409067154,-0.0056374133564531,-0.065013512969017
5.1200283203125,-0.3147999942302704,0.2449999898672104,-0.1112999990582466,0.06321582198143,-0.0195825938135385,-0.0294786114245653
5.1398818359375,-0.249099999666214,0.2328999936580658,-0.1588999927043914,0.0208915919065475,-0.0402821972966194,0.036425020545721
5.159733154296875,0.065600000321865,-0.0173000004142522,-0.0706999972462654,-0.0034382985904812,-0.0552571229636669,0.0771435499191284
5.17958642578125,0.4545999765396118,-0.2044999897480011,0.0359000004827976,-0.0034906584769487,-0.0578576661646366,0.0487470440566539
5.219292724609375,0.3937000036239624,-0.1710999906063079,-0.0631999969482421,0.04359832406044,-0.0366170071065425,-0.0161617491394281
5.239142578125,0.4059000015258789,-0.1985999941825866,-0.0724999979138374,0.0155159765854477,-0.0375420302152633,-0.0410501435399055
5.25899560546875,0.3596999943256378,-0.2496999949216842,0.064300000667572,-0.0036826448049396,-0.0557109080255031,-0.0675093382596969
5.278848876953125,0.3791999816894531,-0.1885000020265579,0.1905999928712844,0.0016406094655394,-0.0323758572340011,-0.1176351904869079
5.2987021484375,0.0027999999001622,-0.0982000008225441,0.3467999994754791,0.0376292988657951,-0.0150621915236115,-0.1596801728010177
5.3185537109375,-0.4274999797344208,0.1328999996185302,0.3082999885082245,0.0696386396884918,-0.008848818950355,-0.1522101610898971
5.338408203125,-0.630899965763092,0.2006999999284744,0.231699988245964,0.0672475323081016,-0.0352731049060821,-0.096045471727848
5.358259765625,-0.5758000016212463,0.1696999967098236,-0.0709000006318092,0.0387463085353374,-0.0640535801649093,-0.0430921800434589
5.378111328125,-0.4491999745368957,0.1334999948740005,-0.1688999980688095,0.0099483765661716,-0.0262148454785347,-0.0131772356107831
5.397964599609375,-0.5022000074386597,0.0630999952554702,-0.0414999984204769,0.0183259565383195,0.01284562330693,0.0223751217126846
5.417817626953125,-0.3916999995708465,-0.0289999991655349,-0.0210999995470047,0.0108384946361184,-0.0069813169538974,0.0694117471575737
5.437670654296875,0.0273000001907348,-0.2185999900102615,-0.1875,-0.0357268899679183,-0.0370009802281856,0.0970577597618103
5.457522216796875,0.458899974822998,-0.3601999878883362,-0.012699999846518,-0.0598124340176582,-0.0401774793863296,0.0550651364028453
5.47737548828125,0.5378000140190125,-0.4472000002861023,0.1219999939203262,-0.0038746309000998,-0.0088139129802584,-0.0215897224843502
5.497228515625,0.3501999974250793,-0.2885999977588653,-0.1233999952673912,0.0484677925705909,0.0330914407968521,-0.0945793911814689
5.517080078125,-0.0720999985933303,-0.0213999990373849,-0.3862999975681305,0.0308748744428157,0.0640361309051513,-0.0924849957227706
5.53693310546875,-0.0864999964833259,0.1116999983787536,-0.2666999995708465,-0.0520980767905712,0.0529183819890022,-0.0357617959380149
5.556786376953125,0.0715999975800514,0.0736000016331672,0.3700000047683716,-0.0921010226011276,0.0132470494136214,-0.0238586515188217
5.576639404296875,0.1630999892950058,0.1124999970197677,0.7892000079154968,-0.0224798414856195,0.0023038345389068,-0.0534594357013702
5.596490966796875,0.0176999997347593,0.3039000034332275,0.6904999613761902,0.0791506841778755,0.0117984255775809,-0.0636870637536048
5.616343994140625,-0.1645999997854232,0.4562999904155731,0.2123999893665313,0.1073377504944801,-0.0041189771145582,-0.0421322472393512
5.636197265625,-0.2327999919652938,0.5339999794960022,-0.0491999983787536,0.0679631233215332,-0.0389382950961589,0.0126710906624794
5.656050537109375,-0.1424999982118606,0.4415999948978424,-0.0477999970316886,0.040037851780653,-0.0370707921683788,0.0588525012135505
5.675903564453125,-0.0237999986857175,0.2164999991655349,0.1096999943256378,0.0584685280919075,-0.0191637147217988,0.0759567320346832
5.695755126953125,0.0975999981164932,0.066100001335144,0.1700000017881393,0.0927991569042205,-0.0140848066657781,0.0778242275118827
5.7156083984375,0.2885999977588653,-0.0808999985456466,-0.131300002336502,0.0966912433505058,-0.0121649447828531,0.0665319487452507
5.73546142578125,-0.0785999968647956,-0.2676999866962433,0.096900001168251,0.0744208395481109,-0.0224623866379261,0.0326551087200641
5.75531298828125,-0.583899974822998,0.0505999997258186,0.5400999784469604,0.0963072702288627,-0.1745852828025818,0.0619940944015979
5.775166015625,-0.3641999959945678,0.0700000002980232,0.2067999988794326,0.0817686766386032,-0.2417979091405868,0.1037772744894027
5.795019287109375,0.3606999814510345,-0.1435000002384185,-0.1668999940156936,0.0842470452189445,-0.0906873047351837,0.0709650889039039
5.814870849609375,0.5467000007629395,-0.4548999965190887,-0.440200001001358,0.1284911334514618,0.1002866178750991,-0.0039793509058654
5.834723876953125,0.2619999945163727,-0.5871999859809875,-0.3168999850749969,0.1123642995953559,0.106011301279068,-0.0619242824614048
5.854575439453125,-0.2352999895811081,-0.3427999913692474,-0.3313999772071838,0.045238934457302,-0.0298625826835632,-0.052848570048809
5.874428466796875,-0.023599999025464,-0.1639999896287918,-1.046299934387207,-0.0461639575660228,-0.0052359877154231,-0.0041015236638486
5.91413330078125,0.0892999991774559,-0.3687999844551086,0.0095999995246529,-0.0722915381193161,0.1141968891024589,-0.0579972900450229
5.933986328125,0.2601000070571899,-0.3141999840736389,-0.1771999895572662,-0.0609992556273937,0.0418879017233848,-0.0501258559525013
5.95383935546875,0.4458999931812286,-0.1833999902009964,-0.2079999893903732,-0.1191710829734802,0.0353429168462753,-0.074246309697628
5.973692626953125,0.3957999944686889,0.0176999997347593,0.3965999782085418,-0.1215272769331932,0.055484015494585,-0.0865334272384643
5.993544189453125,0.2908999919891357,0.1116999983787536,0.6682999730110168,-0.0680503845214843,0.0317649915814399,-0.0758520066738128
6.013397216796875,0.1712999939918518,0.1754999905824661,0.5390999913215637,-0.0473682358860969,-0.0128979831933975,-0.0753807723522186
6.033250244140625,0.0430999994277954,0.2155999988317489,0.458899974822998,-0.0519933588802814,-0.0463908500969409,-0.0555538311600685
6.05310205078125,0.1039000004529953,0.2266999930143356,0.5054999589920044,-0.0359188765287399,-0.0774402618408203,-0.0509810671210289
6.072955078125,0.1193999946117401,0.2836000025272369,0.3167999982833862,-0.000733038294129,-0.088051863014698,-0.0575784109532833
6.09280810546875,-0.0530999973416328,0.3337000012397766,0.0015000000130385,0.0324631221592426,-0.058485984802246,-0.0620639063417911
6.11265966796875,-0.2295999974012375,0.3869999945163727,-0.0179999992251396,0.0349240377545356,-0.0181514248251914,-0.0360585004091262
6.132512939453125,-0.0851999968290329,-0.1193000003695488,0.316100001335144,0.0329518169164657,-0.0857480242848396,-0.0553967505693435
6.152365966796875,-0.0414999984204769,-0.173799991607666,0.4430999755859375,0.0615403093397617,-0.167045459151268,-0.1444609016180038
6.17221923828125,-0.2459999918937683,-0.0461999997496604,-0.1850999891757965,0.1268330812454223,-0.0981573164463043,-0.146328404545784
6.192070556640625,-0.1918999999761581,-0.0881000012159347,-0.5945999622344971,0.1224173903465271,-0.008272860199213,-0.1115614473819732
6.211924072265625,0.0255999993532896,-0.119899995625019,-0.5320999622344971,0.0423067808151245,0.016266468912363,-0.0678409487009048
6.231777099609375,0.1190999969840049,-0.0288999993354082,-0.1087999939918518,-0.0239284634590148,0.0250105690211057,-0.0483281649649143
6.251628662109375,0.1645999997854232,0.142999991774559,0.3319999873638153,-0.0138230072334408,0.0379085503518581,-0.0387288555502891
6.271481689453125,0.0948999971151351,0.0286999996751546,0.4693999886512756,0.0234048645943403,0.0154287107288837,-0.0267558973282575
6.2913349609375,0.2454999983310699,-0.0535000003874301,-0.0296999998390674,0.0099309235811233,-0.0236143041402101,-0.0529881976544857
6.31118798828125,-0.1202999949455261,0.0727999955415725,-0.147499993443489,-0.0041364300996065,-0.0050265481695532,-0.0497244298458099
6.33103955078125,-0.3256999850273132,0.0644999966025352,-0.1181999966502189,-0.0194604210555553,-0.0276809222996234,-0.0247836746275424
6.350892578125,-0.3203999996185303,0.0586999990046024,-0.0015999999595806,-0.019111355766654,-0.0397411473095417,-0.0091804321855306
6.370745849609375,-0.2784999907016754,0.0722999945282936,-0.1008000001311302,-0.006492624990642,-0.0142244333401322,0.0052534411661326
6.390597412109375,-0.0654999986290931,0.0537000000476837,-0.0128999995067715,-0.0055676004849374,0.0104894284158945,0.02185152284801
6.410450439453125,0.1516000032424926,0.0053999996744096,0.0653999969363212,-0.0178372655063867,0.0101403631269931,0.0280648935586214
6.430303466796875,0.1625999957323074,0.0376999974250793,0.1140999943017959,-0.0211882963776588,-0.0142418863251805,0.0246265958994627
6.450155029296875,0.1393999904394149,0.1589999943971634,0.0249999985098838,-0.005410520825535,-0.0034906584769487,0.0304909013211727
6.47000830078125,0.0690999999642372,0.1495999991893768,0.1031999960541725,0.0003490658418741,0.0206821523606777,0.0222529470920562
6.48985986328125,-0.0353999994695186,0.2372999936342239,0.3879999816417694,0.0146084055304527,0.0274365749210119,0.0203156322240829
6.509712890625,-0.0208999998867511,0.116299994289875,0.300599992275238,0.0364773795008659,-0.0143291531130671,0.0479092895984649
6.52956591796875,0.2001999914646148,0.0395999997854232,-0.1297999918460846,0.0076794484630227,-0.0331088975071907,0.0555189214646816
6.549419189453125,0.1820999979972839,-0.011799999512732,0.0462999977171421,-0.030229102820158,-0.0132994093000888,0.040421824902296
6.569270751953125,0.0113999992609024,-0.016499999910593,0.4668999910354614,-0.0061959186568856,0.0139975408092141,0.0166678950190544
6.589123779296875,-0.1530999988317489,0.0234999991953372,0.3393999934196472,0.0525867715477943,0.0320093370974063,0.0146433124318718
6.608975341796875,-0.0592000000178813,-0.1535999923944473,-0.2270999997854232,0.0562694147229194,0.0464432127773761,0.0143117001280188
6.628828369140625,-0.0310999993234872,-0.2234999984502792,-0.2834999859333038,0.0068242372944951,0.0331961624324321,-0.001239183708094
6.648681640625,-0.0344999991357326,-0.1658999919891357,0.0504999980330467,-0.0111701069399714,0.0046949358657002,-0.0070685832761228
6.66853466796875,0.025399999693036,-0.1143999993801117,0.2070999890565872,0.014433872886002,-0.0120078651234507,-0.0131946895271539
6.688387939453125,0.1018999963998794,-0.0285999998450279,0.0700999945402145,0.0391128286719322,3.4906584915e-05,-0.0204727128148078
6.7082392578125,0.1318999975919723,0.0032999999821186,-0.1442999988794326,0.0323060452938079,0.004834562074393,-0.020542524755001
6.7280927734375,0.2803999781608581,0.0366999991238117,-0.1530999988317489,0.0067718774080276,-0.0157952290028333,-0.0181514248251914
6.747944091796875,0.3560999929904938,0.0357000008225441,-0.0255999993532896,-0.0080983275547623,-0.0169471465051174,-0.0318348072469234
6.76779736328125,0.3632999956607818,0.0965999960899353,0.2188999950885772,0.0185703039169311,0.0010646508308127,-0.0472460612654686
6.787648681640625,0.335099995136261,0.0839999988675117,0.1899999976158142,0.0600393265485763,-0.008272860199213,-0.0477696619927883
6.807502197265625,0.3148999810218811,0.1220999956130981,-0.2199999988079071,0.0598996989428997,-0.0029321531765162,-0.053948126733303
6.827355224609375,0.2076999992132187,0.160300001502037,-0.1592999994754791,0.0022514746524393,0.025359634310007,-0.0495149902999401
6.847208251953125,0.0469000004231929,0.1701999902725219,0.282399982213974,-0.0173834785819053,0.0474031418561935,-0.04359832406044
6.867059814453125,-0.0702999979257583,0.1349000036716461,0.4197999835014343,0.0256388857960701,0.0464083030819892,-0.0241902638226747
6.88691455078125,-0.0707999989390373,0.0124999992549419,0.2349999994039535,0.0577354915440082,0.0072256629355251,-0.0007155850180424
6.90676611328125,0.0281999986618757,-0.086899995803833,0.0310999993234872,0.0254294462502002,-0.0087266461923718,-0.0062308255583047
6.92661767578125,-0.1597999930381775,-0.0034999998752027,0.149399995803833,0.0447676964104175,0.0303338225930929,-0.0219736956059932
6.946470703125,-0.3297999799251556,-0.011799999512732,0.0238999985158443,0.0587652362883091,0.0382401645183563,-0.008080874569714
6.966323974609375,-0.2824999988079071,-0.0137999998405575,-0.0419999994337558,0.0472460612654686,0.0158301368355751,0.0161966551095247
6.986177001953125,-0.1428000032901764,-0.0423000007867813,-0.1088999956846237,0.0175056532025337,-0.0345575176179409,0.0363203026354312
7.006028564453125,0.0552999973297119,-0.1149000003933906,-0.2166999876499176,-0.002076941775158,-0.023771384730935,0.0451691225171089
7.025881591796875,0.1962999999523162,-0.1445999890565872,-0.1582999974489212,-0.0057246801443398,0.028204521164298,0.0499687753617763
7.04573486328125,0.2784000039100647,-0.1049999967217445,-0.1090999990701675,-0.0179943442344665,0.0693419277667999,0.0520806238055229
7.065587890625,0.0152999991551041,-0.0923999994993209,0.1560999900102615,-0.0350636653602123,0.0720646455883979,0.0346622392535209
7.085439453125,-0.148399993777275,0.0705999955534935,0.1168999969959259,-0.0239808242768049,0.0754854902625083,0.0659734457731247
7.10529248046875,-0.096900001168251,-0.0432999990880489,0.1761000007390976,-0.0182037837803363,0.0263370182365179,0.0774751678109169
7.1251455078125,0.1015999987721443,0.0666999965906143,0.0876999944448471,-0.0135612078011035,0.0130027029663324,0.0948237404227256
7.144997314453125,0.1106999963521957,-0.0595999993383884,0.1168999969959259,-0.0023561944253742,0.0445058941841125,0.0788365229964256
7.164850341796875,0.0381999984383583,-0.0603000000119209,0.1174999997019767,0.026127578690648,0.0563392266631126,0.0682423710823059
7.184701904296875,0.0564999990165233,-0.085999995470047,-0.1454000025987625,0.0243298895657062,0.0418529957532882,0.0661479756236076
7.204554931640625,0.0719999969005584,-0.1210999935865402,-0.202699989080429,-0.0176627319306135,0.0358490608632564,0.054227378219366
7.224408203125,0.0475999973714351,-0.2066999971866607,-0.2124999910593032,-0.057002454996109,0.0417133681476116,0.0392175465822219
7.244261474609375,0.0052000000141561,-0.23539999127388,0.1489999890327453,-0.0276634693145751,0.0586779676377773,0.0151843642815947
7.26411279296875,-0.1114000007510185,-0.1809999942779541,0.1489999890327453,0.0046949358657002,0.0243997033685445,-0.0034208453726023
7.283966064453125,-0.0184000004082918,-0.093199998140335,-0.1150999963283538,0.0009948377264663,-0.0059341192245483,-0.0061610122211277
7.3038193359375,0.1275999993085861,-0.191100001335144,-0.1151999980211258,-0.0386590436100959,0.022287854924798,-0.0205599777400493
7.3236708984375,0.152099996805191,-0.1437000036239624,0.1582999974489212,-0.0524820499122142,0.0335277765989303,-0.0405963584780693
7.34352392578125,0.0615999996662139,-0.0442999973893165,0.294400006532669,-0.0152541771531105,0.0256039798259735,-0.0589048638939857
7.363376953125,0.0780999958515167,0.1068999990820884,-0.0390000008046627,-0.0113097336143255,0.0169471465051174,-0.0542971938848495
7.383230224609375,0.1418000012636184,0.1102999970316886,-0.1272999942302703,-0.0269827898591756,0.0247138626873493,-0.0304734483361244
7.403081787109375,0.3041999936103821,0.0670999959111213,-0.0296999998390674,-0.0513650402426719,0.0242426227778196,-0.0239633712917566
7.422934814453125,0.3093000054359436,0.1656999886035919,0.1649999916553497,-0.04359832406044,0.0389732010662555,-0.0313810184597969
7.442787841796875,0.1114999949932098,0.2529999911785126,0.3113999962806701,-0.0050090947188436,0.0345226116478443,-0.0182212367653846
7.462639404296875,0.1084999963641166,0.2836000025272369,0.1451999992132187,0.010349802672863,0.0093026049435138,0.0104021625593304
7.48249267578125,0.1880999952554702,0.1537999957799911,0.0279999990016222,0.0108384946361184,0.0006457717972807,0.0177325457334518
7.502345703125,0.0303999986499547,0.1118999943137168,-0.0106999995186924,0.0025307273026555,0.0164235476404428,0.0167726147919893
7.52219873046875,-0.0260999985039234,0.022699998691678,0.2150999903678894,0.0141546204686164,0.031712632626295,0.0214850027114152
7.54205029296875,-0.0405000001192092,0.0291999988257884,0.2847999930381775,0.0270700566470623,0.0059864791110157,0.0360759571194648
7.561903564453125,0.0375999994575977,-0.0550999976694583,0.1779000014066696,0.0188670083880424,-0.0167551599442958,0.0502131208777427
7.581756591796875,0.120799995958805,-0.17739999294281,0.158500000834465,0.0114144533872604,-0.0227590929716825,0.0258832331746816
7.601608154296875,-0.0414999984204769,-0.1701999902725219,0.2368999868631363,0.0424115024507045,0.0082030473276972,-0.0184655841439962
7.621461181640625,-0.1668999940156936,-0.118999995291233,-0.114499993622303,0.0678583979606628,0.0183783173561096,-0.0292517188936471
7.641314453125,-0.0252000000327825,-0.199999988079071,-0.2884999811649322,0.0358316078782081,0.0181688778102397,-0.0287804789841175
7.661167724609375,0.0675999969244003,-0.1280999928712844,-0.2084999978542328,-0.0057944930158555,0.0106290550902485,-0.040037851780653
7.68101904296875,-0.017400000244379,-0.0379000008106231,-0.1202999949455261,-0.0100007364526391,0.036582101136446,-0.0346796922385692
7.7008720703125,0.1278000026941299,-0.0939999967813491,-0.1591999977827072,-0.0111177470535039,0.0864636078476905,-0.0248011294752359
7.720723876953125,0.3901999890804291,-0.140299990773201,0.0772999972105026,-0.0290597323328256,0.0911934524774551,-0.0391651876270771
7.740576904296875,0.1832000017166137,0.0916999951004982,1.1763999462127686,0.0987158194184303,0.1895776689052581,0.005410520825535
7.760428466796875,-0.1237999945878982,-0.2703000009059906,-0.3658999800682068,0.3050311803817749,0.3299021422863006,-0.0417308211326599
7.780281494140625,-0.3335999846458435,0.2308999896049499,-1.3686999082565308,-0.1443561762571334,0.0294087976217269,-0.0389906540513038
7.819988037109375,-0.1537999957799911,0.0997999981045723,1.5202999114990234,-0.1969429552555084,-0.184830367565155,0.1381777226924896
7.839839599609375,0.3946000039577484,-0.3061999976634979,0.6473000049591064,0.1227315515279769,-0.0676315054297447,0.0837932601571083
