seconds_elapsed,accel_x,accel_y,accel_z,gyro_x,gyro_y,gyro_z
0.15060498046875,0.2118169963359832,-0.0309120006859302,0.1525129973888397,0.0356125012040138,0.0576125010848045,-0.0039874999783933
0.1850478515625,0.2306060045957565,0.2324050068855285,-0.4289569854736328,0.0136124994605779,0.025849999859929,-0.0321750007569789
0.219490478515625,-0.0102239996194839,-0.0661820024251937,-0.0406240001320838,-0.052387498319149,0.0001374999992549,-0.0369874984025955
0.25393310546875,0.085437998175621,0.0474679991602897,0.1561499983072281,-0.0169124994426965,0.05884999781847,0.0008249999955296
0.288375732421875,0.0202820003032684,0.1705089956521988,-0.1262540072202682,-0.0584375001490116,-0.0048124999739229,0.0228249989449977
0.322818603515625,0.0041849999688565,0.1717090010643005,0.0680430009961128,-0.0096249999478459,-0.024337500333786,0.004537499975413
0.35726123046875,0.3198939859867096,0.2716439962387085,0.0142470002174377,0.0063249999657273,-0.002337499987334,-0.0016499999910593
0.3917041015625,0.1177129969000816,0.2400030046701431,-0.0145460003986954,-0.0059124999679625,0.0111375004053115,-0.0284624993801116
0.42614697265625,-0.0866490006446838,0.0812949985265731,0.0851090028882026,-0.0059124999679625,0.1051874980330467,-0.0334125012159347
0.46058984375,0.1147919967770576,0.1444330066442489,-0.0192220006138086,0.0428999997675418,0.0611874982714653,-0.0259875003248453
0.495032470703125,0.3158510029315948,0.0273819994181394,-0.4610710144042969,0.0075624999590218,0.0538999997079372,-0.0467500016093254
0.52947509765625,-0.1451009958982467,0.0242730006575584,0.0210219994187355,-0.0461999997496604,0.05884999781847,-0.0247499998658895
0.563917724609375,0.0711660012602806,0.1288859993219375,-0.0691509991884231,0.0086624994874,-0.0340999998152256,0.0142999999225139
0.598360595703125,0.1571439951658249,0.2004529982805252,0.0228710006922483,-0.0279124993830919,-0.0071499999612569,0.0155375003814697
0.63280322265625,0.0141540002077817,0.2079440057277679,0.2076459974050521,-0.0108624994754791,0.0111375004053115,0.0301124993711709
0.66724609375,0.1552850008010864,0.0961029976606369,-0.0623550005257129,-0.0376750007271766,-0.004674999974668,0.0338249988853931
0.7016884765625,0.1224109977483749,0.1435170024633407,-0.0934830009937286,-0.0303875003010034,0.0061874999664723,0.0142999999225139
0.73613134765625,0.1026889979839325,-0.028566999360919,-0.0936480015516281,-0.0230999998748302,0.0196624994277954,0.0142999999225139
0.77057421875,0.1561699956655502,0.1660570055246353,-0.1805209964513778,0.0111375004053115,0.0208999998867511,-0.0186999998986721
0.805016845703125,0.0835930034518241,0.1627160012722015,0.0768380016088485,-0.031624998897314,-0.0035749999806284,-0.0089375004172325
0.83945947265625,0.0673450008034706,0.06284099817276,0.1306080073118209,0.0184249989688396,0.034375000745058,-0.0039874999783933
0.87390234375,-0.0121130002662539,0.2969950139522552,-0.1515060067176818,0.029424998909235,0.0246124994009733,-0.0126499999314546
0.908344970703125,0.1813530027866363,0.2373739928007125,-0.0527070015668869,0.0063249999657273,-0.0096249999478459,-0.0064624999649822
0.942787841796875,0.2089120000600814,0.0966110005974769,0.0506029985845088,-0.0169124994426965,0.029424998909235,-0.0064624999649822
0.97723046875,-0.0305179990828037,0.0863709971308708,0.1169560030102729,0.0356125012040138,0.034375000745058,-0.0039874999783933
1.01167333984375,0.0245639998465776,0.249206006526947,-0.2790000140666961,-0.024337500333786,-0.0291499998420476,-0.0004124999977648
1.046115966796875,0.2064719945192337,0.2356790006160736,0.2089920043945312,-0.031624998897314,0.0061874999664723,-0.0259875003248453
1.080558837890625,0.1217549964785575,0.0232560001313686,0.4645569920539856,0.0648999959230423,0.0917124971747398,-0.02364999987185
1.11500146484375,0.09408999979496,0.3008340001106262,-0.6955059766769409,0.0478499978780746,0.0796125009655952,-0.0602249987423419
1.1494443359375,0.1367900073528289,-0.1135199964046478,0.2249950021505355,-0.0266750007867813,0.0184249989688396,-0.0712250024080276
1.183886962890625,0.0954469963908195,0.0339730009436607,0.0500349998474121,0.1028499975800514,0.1064250022172927,-0.056512501090765
1.218329833984375,0.101340003311634,0.1534900069236755,-0.3702859878540039,-0.0169124994426965,0.0123749999329447,-0.0309375002980232
1.252772216796875,0.234591007232666,0.0985149964690208,0.1190840005874633,0.0368499979376792,0.034375000745058,-0.0467500016093254
1.28721533203125,-0.1154370009899139,0.1949120014905929,-0.3091570138931274,-0.0291499998420476,-0.0120999999344348,-0.0186999998986721
1.321657958984375,0.2977910041809082,0.040472000837326,0.2919650077819824,-0.0131999999284744,-0.0193875003606081,0.0105875004082918
1.3561005859375,-0.0349339991807937,0.152671992778778,-0.2449100017547607,-0.0144375003874301,-0.0048124999739229,0.009349999949336
1.39054345703125,-0.1589100062847137,0.0749770030379295,0.0360109992325305,-0.0351999998092651,-0.0291499998420476,0.0228249989449977
1.424986328125,0.1715250015258789,0.272253006696701,-0.1566890031099319,-0.0108624994754791,-0.031624998897314,0.011824999935925
1.459428955078125,0.2077530026435852,0.0248080007731914,0.2730000019073486,-0.0584375001490116,0.0111375004053115,0.0032999999821186
1.493871826171875,-0.1095639988780021,0.1065440028905868,0.1521829962730407,0.0393249988555908,0.1419000029563903,0.007012499962002
1.528314453125,0.1805720031261444,0.254381000995636,-0.2730900049209595,0.0013749999925494,0.083187498152256,-0.0101749999448657
1.56275732421875,-0.037321999669075,0.1064930036664009,0.0026469998992979,-0.0010999999940395,0.0917124971747398,-0.0321750007569789
1.597199951171875,0.3780969977378845,0.0788680016994476,0.0506730005145072,0.0173249989748001,0.0673749968409538,0.0130624994635581
1.631642578125,0.2493209987878799,0.1407960057258606,3.30000002577e-05,0.0416624993085861,0.1381874978542328,-0.0334125012159347
1.66608544921875,-0.0831929966807365,0.1402720063924789,-0.3417089879512787,-0.0034374999813735,0.0514249987900257,-0.0296999998390674
1.7005283203125,0.401295006275177,0.0455150008201599,-0.1276859939098358,0.0063249999657273,0.0331375002861022,-0.0247499998658895
1.734971435546875,0.0057919998653233,0.0409599989652633,-0.0267629995942115,0.0136124994605779,0.0893749967217445,-0.0444125011563301
1.769413818359375,0.0234229993075132,0.1303859949111938,-0.1587499976158142,0.0026124999858438,-0.0145749999210238,-0.03575000166893
1.803856689453125,0.2024279981851577,0.1839590072631836,-0.1266520023345947,0.0111375004053115,0.029424998909235,-0.0431750006973743
1.83829931640625,-0.0997050032019615,0.1127709969878196,-0.1295599937438964,-0.0144375003874301,0.0281875003129243,-0.0406999997794628
1.8727421875,0.0052249999716877,0.1001460030674934,0.0514530017971992,-0.0096249999478459,-0.0365750007331371,-0.0199375003576278
1.907184814453125,0.0253170002251863,0.0500029996037483,-0.0107659995555877,0.0123749999329447,0.0404249988496303,-0.0186999998986721
1.941627685546875,-0.0741240009665489,0.0802439972758293,-0.0358750000596046,0.0111375004053115,0.0269499998539686,0.011824999935925
1.9760703125,0.0595219992101192,0.1486459970474243,-0.2274750024080276,-0.0279124993830919,-0.0438624992966651,-0.0027499999850988
2.010512939453125,0.1055490002036094,0.0334630012512207,0.0525249987840652,0.0026124999858438,0.0196624994277954,0.0277750007808208
2.044955810546875,0.0515500009059906,0.2306250035762787,-0.0940119996666908,0.0001374999992549,-0.0035749999806284,0.0228249989449977
2.079398681640625,0.2195339947938919,0.0718510001897811,-0.3018960058689117,-0.0083875004202127,-0.0133375003933906,0.0191124994307756
2.11384130859375,0.0984880030155181,0.101852998137474,-0.0839560031890869,-0.0083875004202127,-0.0133375003933906,-0.0004124999977648
2.1482841796875,0.0730379968881607,0.0985959991812706,0.054832998663187,-0.0083875004202127,-0.024337500333786,0.0362999998033046
2.1827265625,0.20380400121212,0.1295550018548965,-0.152550995349884,0.0013749999925494,-0.0255750007927417,-0.0004124999977648
2.217169677734375,0.0879129990935325,0.2158470004796981,-0.1510660052299499,-0.004674999974668,-0.031624998897314,-0.0016499999910593
2.2516123046875,0.084305003285408,0.0001619999966351,0.1017210036516189,-0.0291499998420476,-0.0206249989569187,0.0032999999821186
2.28605517578125,0.0975359976291656,0.1096400022506713,0.1211320012807846,0.0283249989151954,0.0221375003457069,0.011824999935925
2.320497802734375,0.0025430000387132,0.2847779989242553,-0.1349799931049347,-0.0291499998420476,-0.0401500016450881,0.0155375003814697
2.354940673828125,0.1594489961862564,0.0221050009131431,0.0255340002477169,-0.0241999998688697,-0.0145749999210238,0.0215875003486871
2.38938330078125,-0.0552529990673065,0.1952580064535141,-0.0498289987444877,0.0368499979376792,-0.0059124999679625,0.0155375003814697
2.423826171875,0.2025839984416961,0.1529709994792938,-0.1847860068082809,-0.0218624994158744,-0.0389125011861324,0.007012499962002
2.458268798828125,-0.0212670005857944,0.0874380022287368,0.2235600054264068,0.0026124999858438,-0.0048124999739229,0.0105875004082918
2.492711669921875,0.1205800026655197,0.1914979964494705,0.0465719997882843,0.0184249989688396,0.0148499999195337,0.026537500321865
2.527154296875,0.3265840113162994,0.1562040001153946,-0.2864150106906891,0.0050874999724328,-0.0035749999806284,-0.0039874999783933
2.56159716796875,-0.0024729999713599,0.1650899946689605,-0.1386680006980896,-0.0096249999478459,-0.0169124994426965,-0.0004124999977648
2.596039794921875,-0.0846180021762847,-0.0156060000881552,0.0321689993143081,0.0086624994874,0.0123749999329447,-0.0064624999649822
2.63048291015625,0.2702530026435852,0.0718950033187866,-0.3470169901847839,-0.0083875004202127,-0.0340999998152256,0.004537499975413
2.664925537109375,0.0548340007662773,0.0681120008230209,0.0763679966330528,0.0063249999657273,0.0123749999329447,-0.0089375004172325
2.699368408203125,-0.0529539994895458,0.1370529979467392,-0.2394710034132003,-0.0376750007271766,-0.0450999997556209,0.0191124994307756
2.73381103515625,0.23055300116539,0.1797000020742416,0.0366570018231868,-0.0266750007867813,-0.0255750007927417,0.0008249999955296
2.76825390625,0.0395409986376762,0.2796750068664551,-0.2151049971580505,-0.0120999999344348,-0.0071499999612569,-0.0039874999783933
2.802696533203125,-0.0795430019497871,0.1580650061368942,0.2451339960098266,-0.0034374999813735,0.0269499998539686,-0.0174624994397163
2.8371396484375,0.0080230003222823,0.1358920037746429,-0.2074709981679916,0.0160875003784894,0.0001374999992549,-0.0004124999977648
2.87158251953125,0.3363099992275238,0.1196440011262893,-0.0469960011541843,0.0123749999329447,0.017187500372529,-0.0224124994128942
2.906025146484375,-0.1768819987773895,0.0838740020990371,-0.0989179983735084,-0.002337499987334,0.0331375002861022,-0.0272249989211559
2.940468017578125,0.0771069973707199,0.0381660014390945,0.0674310028553009,0.0111375004053115,0.0306624993681907,0.0155375003814697
2.974910400390625,0.1072620004415512,0.0860989987850189,-0.3252789974212646,0.0075624999590218,0.0356125012040138,-0.0027499999850988
3.009353271484375,0.0321809984743595,0.109834998846054,-0.1129570007324218,-0.0120999999344348,-0.0083875004202127,0.011824999935925
3.0437958984375,0.2509590089321136,0.1622949987649917,-0.0601859986782074,-0.002337499987334,-0.031624998897314,0.0008249999955296
3.07823876953125,-0.0175480004400014,0.1408880054950714,-0.1945240050554275,-0.0108624994754791,0.025849999859929,0.0032999999821186
3.112681396484375,0.0896700024604797,0.0838780030608177,0.1619849950075149,-0.0279124993830919,-0.0303875003010034,-0.0004124999977648
3.147124267578125,0.1504870057106018,0.0636819973587989,0.1139279976487159,0.0173249989748001,0.0404249988496303,0.0277750007808208
3.18156689453125,0.1898279935121536,0.1232459992170333,-0.2292809933423996,-0.002337499987334,-0.0169124994426965,0.0081124994903802
3.216010009765625,0.0184380002319812,0.2126359939575195,-0.1241059973835945,0.0063249999657273,0.0123749999329447,-0.0076999999582767
3.25045263671875,-0.018843000754714,0.0930059999227523,0.0729430019855499,0.0086624994874,-0.0145749999210238,-0.0101749999448657
3.2848955078125,0.2958320081233978,0.0642260015010833,-0.0799779966473579,0.0136124994605779,0.0098999999463558,0.0032999999821186
3.319338134765625,0.0120029998943209,0.1871059983968734,-0.0995180010795593,-0.0010999999940395,0.0233750008046627,-0.0199375003576278
3.353781005859375,0.0383850000798702,0.0573699995875358,-0.1383659988641739,-0.0108624994754791,-0.0255750007927417,0.011824999935925
3.388223876953125,0.1337240040302276,0.1297249943017959,0.0345540009438991,0.0050874999724328,0.0318999998271465,0.009349999949336
3.422666748046875,-0.0013330000219866,0.0683590024709701,-0.0785830020904541,-0.0010999999940395,0.0111375004053115,0.0008249999955296
3.457109375,0.0109719997271895,0.0122889997437596,-0.0868899971246719,-0.0376750007271766,0.0050874999724328,0.0350624993443489
3.49155224609375,0.2118030041456222,0.0388620011508464,-0.1303440034389495,0.0038499999791383,0.017187500372529,0.0338249988853931
3.525994873046875,0.15590900182724,0.273030012845993,-0.3109619915485382,-0.048675000667572,-0.0401500016450881,0.0057749999687075
3.560437744140625,-0.1752139925956726,0.0241320002824068,0.2499960064888,-0.0291499998420476,-0.002337499987334,0.0142999999225139
3.59488037109375,0.1829379945993423,0.1433659940958023,0.0564180016517639,0.0283249989151954,0.0306624993681907,0.0252999998629093
3.6293232421875,0.1675180047750473,0.1941870003938675,-0.3897970020771026,-0.0034374999813735,0.0086624994874,-0.0064624999649822
3.663765869140625,0.0066510001197457,-0.0062730000354349,0.1221589967608451,-0.0120999999344348,0.0013749999925494,0.0008249999955296
3.698208984375,0.2436030060052871,0.2298399955034256,-0.3005380034446716,0.0221375003457069,-0.0266750007867813,0.0008249999955296
3.732651611328125,0.081494003534317,0.1547459959983825,-0.1762840002775192,-0.0291499998420476,0.0050874999724328,-0.0199375003576278
3.767094482421875,-0.0515820011496543,0.1725440025329589,0.2071180045604705,0.0196624994277954,-0.0376750007271766,-0.0114124994724988
3.801537353515625,0.0914440006017685,0.1190389990806579,-0.0520370006561279,0.0221375003457069,0.0111375004053115,-0.0039874999783933
3.835980224609375,-0.0941710025072097,0.2024819999933242,0.0531359985470771,0.0270875003188848,0.025849999859929,-0.0016499999910593
3.870423095703125,0.1650709956884384,0.0776560008525848,0.0005349999992176,0.0428999997675418,-0.0010999999940395,-0.0126499999314546
3.90486572265625,0.0506730005145072,0.1268460005521774,-0.2200399935245514,0.0356125012040138,0.0648999959230423,0.0008249999955296
3.93930859375,0.1070559993386268,0.1014690026640892,-0.0611770004034042,0.0111375004053115,0.0086624994874,-0.0211750008165836
3.973751220703125,0.1514990031719207,0.0631040036678314,-0.1609770059585571,0.0503249987959861,0.0673749968409538,-0.0199375003576278
4.008194091796875,0.0361919999122619,0.1602279990911483,-0.4185810089111328,-0.004674999974668,0.0318999998271465,-0.0247499998658895
4.04263671875,0.0147190000861883,-0.1424510031938552,0.1991820037364959,-0.0071499999612569,0.0098999999463558,-0.0101749999448657
4.077079833984375,0.14164599776268,0.1827650070190429,-0.3603950142860412,0.0283249989151954,0.0391874983906745,-0.0016499999910593
4.1115224609375,-0.0790399983525276,0.1633799970149994,-0.1199669986963272,-0.0450999997556209,-0.0291499998420476,-0.0052249999716877
4.14596533203125,0.0624120011925697,0.123539999127388,0.1734869927167892,-0.0120999999344348,-0.0291499998420476,0.009349999949336
4.180407958984375,0.1833180040121078,0.285315990447998,-0.0440360009670257,0.0160875003784894,0.0061874999664723,0.0081124994903802
4.214850830078125,0.074423000216484,0.0242970008403062,-0.0597789995372295,0.0001374999992549,0.0098999999463558,0.004537499975413
4.24929345703125,0.0359539985656738,0.1744070053100586,-0.266618013381958,0.0001374999992549,-0.0266750007867813,-0.0052249999716877
4.283736328125,0.031599998474121,0.0837190002202987,0.2381220012903213,0.0270875003188848,0.0038499999791383,-0.0064624999649822
4.318178955078125,0.0943050011992454,0.0738380029797554,-0.2012329995632171,0.0185624994337558,0.0160875003784894,0.0081124994903802
4.352621826171875,0.1608050018548965,0.1362819969654083,-0.0745590031147003,0.0136124994605779,0.0233750008046627,-0.0076999999582767
4.387064453125,0.0489480011165142,0.050230998545885,-0.3632220029830932,0.0063249999657273,-0.0291499998420476,-0.0039874999783933
4.421507568359375,0.1518959999084472,0.1291269958019256,-0.2500410079956054,-0.0376750007271766,-0.0169124994426965,-0.0089375004172325
4.4559501953125,-0.0812480002641677,0.1286350041627884,0.2753709852695465,-0.0193875003606081,-0.0328624993562698,-0.0114124994724988
4.49039306640625,0.048369999974966,0.2514199912548065,0.0510729998350143,0.0306624993681907,-0.0145749999210238,0.0057749999687075
4.5248359375,0.2294510006904602,0.1619330048561096,-0.0592770017683506,-0.0241999998688697,-0.0120999999344348,0.0105875004082918
4.55927880859375,0.2812510132789612,0.2539570033550262,0.2073760032653808,0.0356125012040138,0.0441375002264976,-0.0186999998986721
4.593721435546875,-0.0310910008847713,0.1623840034008026,-0.312142014503479,-0.0010999999940395,0.0001374999992549,-0.0259875003248453
4.628164306640625,0.2482499927282333,0.0858429968357086,0.0079049998894333,0.038087498396635,0.0086624994874,-0.0577500015497207
4.662607177734375,0.1544730067253112,0.116125002503395,-0.0039280001074075,0.0478499978780746,0.0856624990701675,-0.0651749968528747
4.697050048828125,-0.0731350034475326,0.0710199996829032,-0.2958410084247589,0.0393249988555908,0.0576125010848045,-0.0529375001788139
4.7314931640625,0.0593630000948905,0.0783009976148605,-0.2346599996089935,0.0026124999858438,0.0074249999597668,-0.0504624992609024
4.765935791015625,0.2757839858531952,-0.1308850049972534,0.2353370040655136,-0.0059124999679625,0.0453750006854534,-0.0455125011503696
4.800378662109375,0.1117200031876564,0.1419260054826736,-0.3428409993648529,0.0453750006854534,0.0526624992489814,-0.02364999987185
4.8348212890625,-0.1467529982328415,0.0413860008120536,-0.2819370031356811,-0.0364375002682209,-0.048675000667572,-0.0162249989807605
4.86926416015625,0.0772259980440139,0.0261840000748634,0.1260869950056076,-0.0328624993562698,-0.0499125011265277,0.0240624994039535
4.90370703125,0.127372995018959,0.2384610027074813,-0.0787589997053146,-0.0144375003874301,-0.0694374963641166,0.026537500321865
4.93814990234375,0.0590209998190403,0.2682749927043915,-0.1326600015163421,-0.0254375003278255,-0.0438624992966651,0.0180124994367361
4.972592529296875,0.1614989936351776,0.1742299944162368,0.0697719976305961,-0.0156750008463859,-0.0596750006079673,-0.0089375004172325
5.007035400390625,-0.1193990036845207,-0.0859830006957054,0.0836329981684684,0.0050874999724328,0.0111375004053115,0.009349999949336
5.04147802734375,0.0953409969806671,0.0476109981536865,-0.2420630007982254,-0.0156750008463859,-0.0133375003933906,0.0240624994039535
5.0759208984375,0.1977279931306839,0.1345420032739639,-0.2300930023193359,-0.0351999998092651,-0.0536249987781047,0.0105875004082918
5.110363525390625,0.1995940059423446,0.1697600036859512,-0.0781980007886886,-0.031624998897314,-0.0475750006735324,-0.0016499999910593
5.144806640625,-0.0002189999941037,0.2201050072908401,0.1093640029430389,-0.0181499999016523,-0.048675000667572,0.0142999999225139
5.179249267578125,0.1701070070266723,0.1723120063543319,-0.1562319993972778,-0.0254375003278255,-0.0511500015854835,-0.0016499999910593
5.2136923828125,-0.1769780069589615,0.0236109998077154,0.1914860010147094,0.0050874999724328,0.0233750008046627,-0.0027499999850988
5.248135009765625,0.0647329986095428,-0.0045409998856484,-0.2073789983987808,0.0098999999463558,0.0074249999597668,0.0228249989449977
5.282577880859375,0.1651230007410049,0.0602970011532306,-0.3721770048141479,-0.0108624994754791,-0.0133375003933906,0.011824999935925
5.317020751953125,0.0124789997935295,0.1351969987154007,-0.0714349970221519,-0.0426249988377094,-0.057337500154972,0.0252999998629093
5.3514638671875,0.0935470014810562,0.0750719979405403,0.092178001999855,-0.0034374999813735,-0.0230999998748302,0.0105875004082918
5.38590673828125,-0.0570469982922077,0.1485690027475357,-0.2182289958000183,-0.0059124999679625,0.0086624994874,0.0252999998629093
5.420349365234375,0.0084189996123313,-0.1028209999203682,-0.0822929963469505,-0.0169124994426965,-0.0560999996960163,0.054587498307228
5.454792236328125,0.0121259996667504,0.0209989994764328,-0.3529140055179596,-0.0071499999612569,-0.0683375000953674,0.0717749968171119
5.48923486328125,0.2419809997081756,0.3094629943370819,-0.3930700123310089,-0.085387498140335,-0.2014375030994415,0.0618750005960464
5.523677978515625,0.4394919872283935,0.0311769992113113,0.1794919967651367,-0.0963874980807304,-0.1549624949693679,0.0485375002026557
5.55812060546875,-0.2436559945344925,0.1115100011229515,0.1451559960842132,-0.0291499998420476,-0.0878624990582466,0.0618750005960464
5.5925634765625,0.0120010003447532,0.2531830072402954,-0.095390997827053,-0.0413874983787536,-0.1231999993324279,0.0728750005364418
5.627006103515625,0.2498449981212616,0.1891079992055893,0.1912260055541992,0.0136124994605779,-0.031624998897314,0.007012499962002
5.661448974609375,0.0361189991235733,0.2439790070056915,-0.0377600006759166,-0.0059124999679625,-0.0083875004202127,0.0277750007808208
5.695891845703125,0.3491129875183105,0.1097349971532821,0.1790989935398101,0.038087498396635,0.0391874983906745,-0.0039874999783933
5.730334716796875,-0.1690409928560257,0.1705099940299987,-0.2560099959373474,0.0393249988555908,0.0391874983906745,0.0020624999888241
5.764777587890625,0.1106000021100044,0.1552570015192031,-0.2407210022211074,-0.0218624994158744,-0.0413874983787536,0.0020624999888241
5.799220458984375,0.1523229926824569,-0.0409389995038509,0.0754209980368614,0.0001374999992549,-0.0120999999344348,0.0215875003486871
5.8336630859375,0.0847880020737648,0.2330880016088485,-0.2520999908447265,0.0026124999858438,-0.0340999998152256,0.0142999999225139
5.86810595703125,0.0983249992132186,0.1024919971823692,-0.0506849996745586,-0.0230999998748302,-0.0413874983787536,-0.0039874999783933
5.902549072265625,-0.0340769998729229,0.1958670020103454,0.0913000032305717,0.0196624994277954,-0.0096249999478459,-0.0199375003576278
5.93699169921875,-0.0455130003392696,0.138933002948761,0.1325139999389648,0.0136124994605779,0.0098999999463558,0.007012499962002
5.9714345703125,0.2178640067577362,0.0639870017766952,-0.1485349982976913,0.0503249987959861,0.0281875003129243,-0.0186999998986721
6.00587744140625,-0.0526550002396106,0.2832100093364715,-0.42289799451828,0.0001374999992549,-0.0145749999210238,-0.0126499999314546
6.0403203125,-0.1724810004234314,-0.1720650047063827,0.0580650009214878,-0.0266750007867813,-0.0926750004291534,0.0105875004082918
6.07476318359375,-0.2063560038805008,0.1070509999990463,-0.1790229976177215,0.088137499988079,-0.1073874980211258,-0.0199375003576278
6.1092060546875,-0.2771089971065521,0.2682630121707916,-0.5123530030250549,0.0086624994874,-0.113437496125698,0.0180124994367361
6.143648681640625,0.0470479987561702,0.4088349938392639,-0.5437679886817932,-0.1501500010490417,-0.3639625012874603,0.0448249988257885
6.178091552734375,0.3592199981212616,0.0601719990372657,0.7892850041389465,-0.0731500014662742,-0.2747249901294708,0.1023000031709671
6.2125341796875,0.8802499771118164,0.0135030001401901,0.117637000977993,0.0428999997675418,-0.2429624944925308,0.129112496972084
6.246977294921875,1.0188970565795898,-0.2773549854755401,0.0703950002789497,-0.0266750007867813,-0.0646250024437904,0.0228249989449977
6.281419921875,0.3528670072555542,0.0517739988863468,-0.7436950206756592,0.1113749966025352,0.055137500166893,0.004537499975413
6.31586279296875,-0.5028200149536133,0.0886610001325607,-1.3161250352859497,-0.0974875018000602,-0.0963874980807304,-0.0149875003844499
6.350305419921875,-0.6417819857597351,0.0846709981560707,0.0106969997286796,-0.128150001168251,-0.2503874897956848,0.0558249987661838
6.38474853515625,0.3122079968452453,0.25034299492836,0.5520439743995667,-0.0719124972820282,-0.1891999989748001,0.0705375000834465
6.41919140625,0.0251979995518922,0.2693240046501159,0.6227369904518127,-0.0646250024437904,-0.0914374962449073,0.0692999958992004
6.45363427734375,0.2653979957103729,0.4004549980163574,0.4660319983959198,-0.0120999999344348,-0.0671000033617019,0.054587498307228
6.488076904296875,-0.4476470053195953,0.3055830001831054,0.0079760001972317,0.0283249989151954,0.0807124972343444,0.0252999998629093
6.522519775390625,0.0460669994354248,0.1453009992837906,-0.0369680002331733,0.0111375004053115,0.0013749999925494,0.0290124993771314
6.55696240234375,0.2767969965934753,0.0393319986760616,-0.066941000521183,0.0686125010251998,0.086899995803833,-0.0125124994665384
6.591405517578125,0.3057110011577606,-0.0678130015730857,-0.2289389967918396,0.0405624993145465,0.1882375031709671,-0.039462499320507
6.62584814453125,0.0176180005073547,0.1457780003547668,-0.4145829975605011,0.0063249999657273,0.0404249988496303,-0.0589874982833862
6.660291015625,-0.1028129979968071,0.1171870008111,-0.1831630021333694,-0.0156750008463859,0.0233750008046627,-0.0272249989211559
6.694733642578125,0.2794690132141113,0.2517249882221222,0.2232750058174133,-0.002199999988079,0.0379500016570091,-0.0334125012159347
6.7291767578125,-0.122418001294136,0.1069919988512992,0.2486139982938766,0.0160875003784894,0.0893749967217445,-0.0369874984025955
6.763619873046875,0.0397129990160465,0.2734540104866028,-0.2352959960699081,0.0270875003188848,0.1222374960780143,-0.0224124994128942
6.7980625,-0.147376000881195,-0.0083020003512501,-0.2771730124950409,0.0111375004053115,0.0636624991893768,-0.0296999998390674
6.83250537109375,0.2160319983959198,0.0190239995718002,-0.2102549970149994,0.0001374999992549,0.0759000033140182,-0.0272249989211559
6.866947998046875,-0.1620160043239593,0.1679919958114624,-0.3063719868659973,-0.0646250024437904,0.1406625062227249,-0.0174624994397163
6.90139111328125,0.1409440040588379,0.1245260015130043,0.3011760115623474,-0.048675000667572,0.0159499999135732,-0.0126499999314546
6.935833740234375,0.0683149993419647,0.3128040134906769,0.1269800066947937,0.0208999998867511,0.1199000030755996,-0.0027499999850988
6.97027685546875,-0.0650560036301612,0.076505996286869,-0.1253959983587265,0.0160875003784894,0.1003749966621398,0.0325874984264373
7.00471923828125,0.4052619934082031,0.0749540030956268,-0.0496059991419315,0.0208999998867511,0.0576125010848045,-0.0345125012099742
7.039162353515625,0.0539750009775161,0.024482000619173,-0.2048050016164779,0.0270875003188848,0.1296624988317489,-0.0174624994397163
7.07360498046875,-0.1105450019240379,0.1602869927883148,-0.283253014087677,0.0063249999657273,-0.0193875003606081,-0.0126499999314546
7.108048095703125,0.2479220032691955,0.1878580003976822,-0.0026670000515878,0.0063249999657273,-0.0218624994158744,-0.0247499998658895
7.14249072265625,-0.085435003042221,0.2010850012302398,-0.0227540004998445,0.0185624994337558,-0.002337499987334,-0.0114124994724988
7.17693359375,0.0421699993312358,0.2138839960098266,-0.0860610008239746,0.0050874999724328,-0.0706750005483627,0.0167750008404254
7.21137646484375,0.3018099963665008,-0.0976430028676986,0.0899790003895759,-0.004674999974668,-0.0181499999016523,0.009349999949336
7.2458193359375,-0.012338999658823,0.1346630007028579,-0.2745049893856048,0.0050874999724328,-0.0145749999210238,0.0485375002026557
7.280262451171875,0.2072650045156479,0.0698459967970848,-0.2533479928970337,-0.0609125010669231,-0.0695749968290329,0.0032999999821186
7.314705078125,0.2482289969921112,0.0275860000401735,-0.2772670090198517,-0.022962499409914,0.0074249999597668,0.0020624999888241
7.34914794921875,-0.2753719985485077,0.2080699950456619,-0.2212000042200088,-0.0206249989569187,-0.0511500015854835,-0.0309375002980232
7.3835908203125,0.0878430008888244,0.0265510007739067,0.0597280003130435,-0.0511500015854835,-0.0926750004291534,0.007012499962002
7.41803369140625,0.2480189949274063,0.183114007115364,0.0699750036001205,0.0306624993681907,0.0379500016570091,-0.0064624999649822
7.452476318359375,-0.0937130004167556,0.130840003490448,-0.3370029926300049,-0.0474375002086162,-0.0683375000953674,0.0228249989449977
7.486919189453125,0.1018669977784156,-0.1176230013370513,0.2236829996109008,-0.0193875003606081,-0.0596750006079673,0.0192499998956918
7.52136181640625,-0.019803000614047,0.1441619992256164,-0.2693459987640381,0.0001374999992549,-0.0120999999344348,0.0595375001430511
7.555804931640625,0.2159910053014755,0.0052350000478327,-0.2271050065755844,-0.0829124972224235,-0.1354375034570694,0.0705375000834465
7.59024755859375,0.2897950112819671,0.2063529938459396,0.0781320035457611,-0.0351999998092651,-0.0365750007331371,0.0485375002026557
7.624690673828125,-0.2451899945735931,0.2339790016412735,-0.1727080047130584,-0.0449624992907047,-0.0475750006735324,0.0203499998897314
7.65913330078125,-0.0715790018439292,0.193007007241249,0.098811998963356,-0.0413874983787536,-0.0169124994426965,0.007012499962002
7.693576171875,0.0911649987101554,0.1230340003967285,0.3979920148849487,0.05884999781847,0.086899995803833,-0.0064624999649822
7.72801904296875,0.2658880054950714,0.0551019981503486,-0.5301200151443481,0.0075624999590218,0.0611874982714653,0.011824999935925
7.7624619140625,-0.1388539969921112,0.1426990032196045,-0.3835299909114837,-0.002337499987334,0.0208999998867511,0.0008249999955296
7.79690478515625,-0.2269019931554794,0.049125000834465,-0.2760820090770721,-0.0731500014662742,-0.0939124971628189,0.0180124994367361
7.83134765625,0.3703980147838592,0.0621270015835762,0.2805289924144745,-0.0193875003606081,-0.0120999999344348,0.007012499962002
7.865790283203125,-0.1285009980201721,0.2523370087146759,0.0339769981801509,0.025849999859929,0.0184249989688396,0.0032999999821186
7.900233154296875,0.2533639967441559,0.1702049970626831,0.0019170000450685,-0.002337499987334,-0.0010999999940395,0.0155375003814697
7.93467626953125,0.2033050060272216,0.1454990059137344,0.0354579985141754,0.0318999998271465,0.0807124972343444,-0.0321750007569789
7.969118896484375,-0.0949380025267601,0.1182760000228881,-0.2681460082530975,0.0086624994874,0.0404249988496303,-0.0101749999448657
8.003561767578125,0.265051007270813,0.1896139979362487,-0.1683689951896667,0.0208999998867511,0.0123749999329447,-0.0199375003576278
8.038004638671875,-0.0176320001482963,0.0806230008602142,-0.3451209962368011,-0.0181499999016523,-0.0120999999344348,-0.0369874984025955
8.072447509765626,0.1341889947652816,-0.0385279990732669,0.2862609922885895,0.0013749999925494,0.0184249989688396,-0.0089375004172325
8.10689013671875,-0.1316229999065399,0.1966969966888427,-0.3102200031280517,0.0075624999590218,0.0184249989688396,-0.0247499998658895
8.1413330078125,0.0218529999256134,0.0324379988014698,0.0991439968347549,-0.004674999974668,-0.0048124999739229,0.0215875003486871
8.175775634765625,0.2434989959001541,0.1141199991106987,0.0517870001494884,0.0026124999858438,0.0478499978780746,0.0191124994307756
8.21021875,-0.0493049994111061,0.1839900016784668,-0.2757959961891174,0.0111375004053115,-0.0059124999679625,0.0252999998629093
8.244661376953125,0.0317520014941692,0.1354469954967498,-0.2607620060443878,-0.0241999998688697,-0.0413874983787536,-0.0004124999977648
8.2791044921875,0.1189929991960525,0.0192629992961883,-0.0472720004618167,0.0087999999523162,0.0061874999664723,0.0032999999821186
8.313547119140624,0.0759600028395652,-0.0800390020012855,-0.1997269988059997,-0.0339624993503093,-0.0291499998420476,-0.0052249999716877
8.347989990234375,-0.0191879998892545,0.1325010061264038,-0.151760995388031,0.0038499999791383,-0.0181499999016523,0.0167750008404254
8.382432861328125,0.1054890006780624,0.2308640033006668,-0.0029229999054223,-0.0279124993830919,-0.0475750006735324,0.0167750008404254
8.416875732421875,0.1733990013599395,0.1272069960832595,0.0493279993534088,-0.0169124994426965,-0.0059124999679625,0.0142999999225139
8.451318359375,0.0341759994626045,0.2328819930553436,0.038621999323368,0.0111375004053115,-0.0181499999016523,0.0192499998956918
8.48576123046875,0.1795179992914199,0.1202090010046958,0.0149259995669126,0.0038499999791383,-0.0083875004202127,0.0203499998897314
8.520204345703124,0.1359229981899261,0.1354369968175888,-0.212455004453659,-0.0071499999612569,0.0013749999925494,0.0313500016927719
8.55464697265625,-0.0438239984214305,-0.0412000007927417,0.098470002412796,-0.0156750008463859,0.0416624993085861,0.0423500016331672
8.589090087890625,0.3779590129852295,0.085998997092247,-0.1803019940853119,-0.0096249999478459,0.0208999998867511,0.0375375002622604
8.62353271484375,-0.0068620000965893,0.2356919944286346,-0.2567079961299896,-0.0059124999679625,0.0061874999664723,-0.0162249989807605
8.6579755859375,-0.1169539988040924,0.2378730028867721,-0.2603389918804168,-0.0181499999016523,-0.0096249999478459,0.007012499962002
8.69241845703125,0.2028030008077621,0.1056480035185813,0.2582069933414459,-0.0279124993830919,-0.0768624991178512,0.0057749999687075
8.726861328125,0.2326100021600723,0.1554010063409805,0.001689999946393,0.0050874999724328,-0.0193875003606081,0.0228249989449977
8.76130419921875,-0.1585180014371872,0.0964310020208358,-0.0182440001517534,-0.0144375003874301,0.0013749999925494,0.0191124994307756
8.7957470703125,0.0324530005455017,0.3131139874458313,-0.3239850103855133,0.0013749999925494,-0.081675000488758,0.0400125011801719
8.830189697265626,0.3420389890670776,0.0036879999097436,0.1352519989013672,-0.0254375003278255,-0.0193875003606081,0.004537499975413
8.864632568359376,-0.0681470036506652,0.1571640074253082,0.2325270026922226,0.0576125010848045,0.0368499979376792,0.0142999999225139
8.899075439453124,0.1740339994430542,0.1358599960803985,-0.0508299991488456,-0.0120999999344348,-0.0560999996960163,-0.0039874999783933
