seconds_elapsed,accel_x,accel_y,accel_z,gyro_x,gyro_y,gyro_z
0.2683271484375,0.5171999931335449,-0.5008000135421753,1.383999943733215,-0.046495571732521,-0.1246863231062889,0.0289026517421007
0.2881787109375,-0.001300000003539,-0.0076999999582767,-0.0175000000745058,-0.046495571732521,-0.1246863231062889,0.0289026517421007
0.30803173828125,0.0362999998033046,0.0,-0.1733999997377395,-0.046495571732521,-0.1246863231062889,0.0289026517421007
0.327884765625,0.1165999993681907,0.005099999718368,-0.0816999971866607,-0.046495571732521,-0.1246863231062889,0.0289026517421007
0.34773779296875,-0.1717000007629394,0.2872999906539917,0.4482999742031097,-0.046495571732521,-0.1246863231062889,0.0289026517421007
0.367589599609375,0.1195999979972839,0.4081999957561493,0.412200003862381,-0.046495571732521,-0.1246863231062889,0.0289026517421007
0.387442626953125,0.3075999915599823,0.257099986076355,0.0530999973416328,-0.046495571732521,-0.1246863231062889,0.0289026517421007
0.407295654296875,0.2240999937057495,0.2308999896049499,0.2633000016212463,-0.046495571732521,-0.1246863231062889,0.0289026517421007
0.427147216796875,0.0679999962449073,-0.0113999992609024,1.542199969291687,-0.046495571732521,-0.1246863231062889,0.0289026517421007
0.44700048828125,-0.2980999946594238,0.5361999869346619,0.902999997138977,0.0524471439421176,-0.0587128773331642,0.1156455129384994
0.466853515625,-0.397299975156784,0.2989999949932098,0.5347999930381775,0.0365297421813011,-0.0526216775178909,0.1749518066644668
0.48670654296875,-0.0200999993830919,0.0341999977827072,0.5352999567985535,0.0203679930418729,-0.1506044566631317,0.1884257495403289
0.50655810546875,0.3734000027179718,-0.3427000045776367,-0.0564999990165233,0.0340862795710563,-0.0126187307760119,0.1470963507890701
0.526411376953125,0.1213999986648559,-0.495199978351593,-0.0307999998331069,0.0873188227415084,0.2028596252202987,0.050108402967453
0.546262939453125,-0.2504000067710876,-0.5001000165939331,-0.6699000000953674,0.1199041157960891,0.3416831195354461,0.0445233508944511
0.566115966796875,-0.0164000000804662,-0.7110999822616577,-1.4625999927520752,0.0009948377264663,0.1684766262769699,0.0300894770771265
0.585968994140625,-0.0579000003635883,-0.6208999752998352,-1.9754999876022337,-0.1723163574934005,0.0428827404975891,0.0035081116948276
0.605822509765625,0.4361999928951263,-0.5800999999046326,-2.067600011825561,-0.3439694941043854,0.0020420351065695,-0.0878773257136344
0.625673828125,-0.0502999983727932,-0.1878999918699264,-1.6612999439239502,-0.3406533598899841,0.2774899005889892,-0.026947883889079
0.64552685546875,0.1057999953627586,-0.4233999848365783,-1.5324000120162964,-0.3625048696994781,0.5701466798782349,0.0594284608960151
0.66537841796875,0.4441999793052673,-0.5058000087738037,-0.7410999536514282,-0.478167861700058,0.5826083421707153,0.0549429655075073
0.6852314453125,0.6351000070571899,-0.5342999696731567,0.7185999751091003,-0.4577474892139435,0.4167846143245697,-0.0308225136250257
0.7050849609375,0.2221999913454055,-0.1824999898672104,0.6229999661445618,-0.3253293633460998,0.2342929989099502,-0.1627170443534851
0.724936279296875,-0.4669999778270721,0.3486999869346618,0.1079999953508377,-0.3572688996791839,0.0682423710823059,-0.1891064196825027
0.74478955078125,-0.7198999524116516,0.2683999836444855,0.8669999837875366,-0.5355193614959717,-0.3667111396789551,-0.2667910158634186
0.764642578125,-1.4392999410629272,0.5543999671936035,1.6172000169754028,-0.4816061556339264,-0.3432713449001312,-0.200835034251213
0.784494384765625,-1.737899899482727,0.3824999928474426,1.8799999952316284,-0.3073175847530365,-0.0774751678109169,-0.0096167642623186
0.804347412109375,-1.5378999710083008,0.2506999969482422,1.2978999614715576,-0.139835774898529,0.0623955205082893,0.1153313592076301
0.824200439453125,-1.2206000089645386,-0.045899998396635,0.7834999561309814,-0.0924675464630127,0.0274540297687053,0.1905899494886398
0.844052001953125,-1.225000023841858,-0.1826999932527542,0.4779999852180481,-0.0349240377545356,-0.0508763492107391,0.2469989955425262
0.8639052734375,-0.8144999742507935,-0.4790999889373779,-0.3419999778270721,-0.0183608643710613,-0.1816887706518173,0.2709623575210571
0.88375830078125,-0.3391999900341034,-0.5465999841690063,-1.158900022506714,-0.0908792912960052,-0.182631254196167,0.2398256957530975
0.90360986328125,-0.0740999951958656,-0.6875,-0.4799999892711639,-0.1207069680094719,-0.026616271585226,0.1915847957134246
0.923462890625,-0.3649999797344208,-0.7696999907493591,0.3420999944210052,0.0027925267349928,0.096045471727848,0.1033409461379051
0.943316162109375,-0.7723999619483948,-0.4233999848365783,0.1704999953508377,0.1039169058203697,0.1807288378477096,0.1048419252038002
0.963169189453125,-0.8776999711990356,-0.2924999892711639,0.0438999980688095,0.0890467017889022,0.2201907336711883,0.1627344936132431
0.983020751953125,-0.2363999933004379,-0.325899988412857,0.0442999973893165,0.0067369709722697,0.1403244733810424,0.1603957563638687
1.002873779296875,-0.0832000002264976,-0.2070999890565872,0.1777999997138977,-0.1043008789420127,0.1235344037413597,0.0665319487452507
1.02272705078125,-0.4540999829769134,0.2166999876499176,0.873699963092804,-0.1615825742483139,0.2203129082918167,0.0224798414856195
1.042580078125,-0.861299991607666,0.1262999922037124,1.4771000146865845,-0.2176949232816696,0.1437453180551529,0.048572514206171
1.062431640625,-0.5956000089645386,-0.221000000834465,2.060499906539917,-0.2583087384700775,-0.1650034338235855,0.0481012724339962
1.08228466796875,-0.2836000025272369,-0.3854999840259552,2.140399932861328,-0.160500481724739,-0.459039032459259,-0.0460592396557331
1.1021376953125,-0.0216999985277652,-0.3109999895095825,1.3452999591827393,0.0199142061173915,-0.4739616215229034,-0.1636595278978347
1.121989501953125,-0.2639999985694885,0.0262000001966953,0.3146999776363373,0.146694928407669,-0.3056769669055938,-0.2339788377285003
1.141842529296875,-0.4386999905109405,0.1517999917268753,-0.6495999693870544,0.1024857312440872,-0.1950230896472931,-0.2612583339214325
1.16169580078125,-0.343099981546402,0.1360999941825866,-0.899899959564209,-0.0649437010288238,-0.1750739812850952,-0.2783451080322265
1.181547119140625,-0.1462000012397766,-0.0645999982953071,-0.1392000019550323,-0.1755103021860122,-0.1502204835414886,-0.3019594252109527
1.201400390625,-0.1231999993324279,-0.1555999964475631,0.9781999588012696,-0.104772113263607,-0.0787667110562324,-0.3251548409461975
1.221253662109375,-0.0577999986708164,-0.2395000010728836,0.8732999563217163,0.0327947363257408,-0.0650484189391136,-0.3337593078613281
1.241106689453125,0.1365000009536743,-0.123999997973442,0.1676999926567077,0.0936194583773613,-0.1430122852325439,-0.3195348680019378
1.260958251953125,0.4208999872207641,-0.1182999983429908,-0.4655999839305877,0.0605105645954608,-0.1682846397161483,-0.312274307012558
1.2808115234375,0.5428000092506409,-0.090999998152256,-0.4325999915599823,0.0237888377159833,-0.1646892726421356,-0.3160965740680694
1.3006630859375,0.3809999823570251,0.0508999973535537,-0.4211999773979187,0.046216320246458,-0.1106538772583007,-0.2998999357223511
1.32051611328125,0.1693999916315078,0.1002999991178512,-0.3300999999046325,0.0536863282322883,-0.0586430616676807,-0.2464055866003036
1.340369140625,0.1902999877929687,0.0600999966263771,-0.1701999902725219,0.0680503845214843,-0.0274365749210119,-0.1722290962934494
1.360222412109375,0.3009999990463257,-0.1097999960184097,0.0296000000089406,0.0940557941794395,-0.0330739878118038,-0.1524545103311538
1.380073974609375,0.2721000015735626,-0.0003999999898951,-0.3867999911308288,0.0930609554052352,-0.0614355877041816,-0.1419476270675659
1.399927001953125,0.2175000011920929,0.0989999994635582,-0.9501999616622924,-0.0097040310502052,-0.0539306737482547,-0.1107760444283485
1.419780029296875,0.1035999953746795,0.0607999972999095,-0.5777999758720398,-0.128229334950447,0.0140149937942624,-0.0768293961882591
1.439631591796875,0.0692000016570091,-0.1507000029087066,0.2978000044822693,-0.1700648814439773,0.041783183813095,-0.0555189214646816
1.45948486328125,-0.0687000006437301,-0.1383000016212463,0.6904999613761902,-0.1099033802747726,-0.0201061926782131,-0.0380132719874382
1.47933642578125,0.0060999998822808,-0.1369999945163726,0.0275999996811151,-0.1061160191893577,-0.1010196581482887,-0.0071383966132998
1.49919091796875,0.2502999901771545,-0.1656999886035919,-0.173799991607666,-0.182648703455925,-0.1101477295160293,-0.0064402651041746
1.51904248046875,0.3941999971866607,-0.3069999814033508,0.3167999982833862,-0.1603433936834335,-0.0371580608189106,-0.0470715314149856
1.538895751953125,0.3479000031948089,-0.3050000071525574,0.4946999847888946,-0.0458148941397666,0.0694990083575248,-0.1177399083971977
1.558747314453125,-0.1841999888420105,-0.0406999997794628,-0.0473999977111816,0.0150447385385632,0.1569050997495651,-0.130707710981369
1.578600341796875,-0.1987999975681305,0.0549999997019767,-0.2827999889850616,-0.0137531943619251,0.1992293298244476,-0.0833743810653686
1.598453369140625,-0.0606999993324279,-0.0689999982714653,-0.3626999855041504,-0.0786270797252655,0.1677959561347961,-0.0535467006266117
1.618306640625,0.0894999951124191,-0.0826999992132186,-0.1515000015497207,-0.1222952231764793,0.103515475988388,-0.0525169558823108
1.638158203125,0.1097999960184097,0.0978999957442283,-0.2168999910354614,-0.1003913357853889,0.0533896200358867,-0.0397062413394451
1.65801123046875,0.1199999973177909,0.2542999982833862,-0.6437000036239624,-0.0776322484016418,0.0156730562448501,-0.0051487213931977
1.677864501953125,0.277999997138977,0.4350000023841858,-1.000499963760376,-0.1075646430253982,0.0034906584769487,0.0597077123820781
1.6977177734375,0.5476999878883362,0.209099993109703,-0.73089998960495,-0.118019163608551,-0.0266337245702743,0.1102000921964645
1.717567626953125,0.7595999836921692,-0.0047999997623264,-0.5206999778747559,-0.0349240377545356,-0.0383972451090812,0.10349802672863
1.73742236328125,0.762999951839447,-0.2929999828338623,-0.384799987077713,0.1201135590672493,0.0402821972966194,0.0800058916211128
1.757273681640625,0.6446999907493591,-0.5708999633789062,-0.3788000047206878,0.356623113155365,0.1823345422744751,0.0494102723896503
1.777127197265625,0.555899977684021,-0.7394999861717224,-0.9192999601364136,0.5534788370132446,0.2838428914546966,0.0044854963198304
1.796980224609375,0.8073999881744385,-0.4266999959945678,-1.1080999374389648,0.6188414096832275,0.1965938806533813,-0.0521155297756195
1.816831787109375,1.1452999114990234,0.1037999987602233,-0.8097999691963196,0.5789082646369934,-0.0778765901923179,-0.112922802567482
1.836684814453125,2.129600048065185,1.1318999528884888,1.2724000215530396,0.5735501050949097,-0.1892809569835662,-0.1764353364706039
1.856536376953125,0.9121999740600586,3.151099920272827,5.552700042724609,0.9620429277420044,0.0172263998538255,-0.2325651198625564
1.87639111328125,-0.0148999998345971,6.068599700927734,8.47599983215332,1.329260230064392,0.1726479679346084,-0.0534070767462253
1.89624267578125,0.7142999768257141,7.09559965133667,12.516200065612791,0.9755517840385436,-0.3689102530479431,0.0649437010288238
1.916095703125,1.5816999673843384,6.268799781799316,22.646499633789062,1.206999897956848,-0.9031381011009216,-0.1432217210531234
1.935947265625,-1.9656999111175537,4.0391998291015625,27.95489883422852,2.9810922145843506,-1.1117746829986572,-0.6053325533866882
1.955800537109375,-5.105599880218506,3.7799999713897705,18.34779930114746,4.307926177978516,-1.643227458000183,-0.5069483518600464
1.975653564453125,-3.1328999996185303,3.929199934005737,7.94219970703125,4.001638412475586,-1.6317607164382937,-0.2426007688045501
1.995505126953125,-1.9789999723434448,3.774899959564209,1.7489999532699585,2.732923746109009,-0.9439263939857484,-0.1443910896778106
2.015358154296875,-2.4400999546051025,0.6728000044822693,2.511899948120117,1.5311075448989868,-0.1468520015478134,0.1636595278978347
2.03521142578125,-1.774899959564209,-2.0033998489379883,1.5191999673843384,0.8977100849151611,-0.0191288087517023,0.435337483882904
2.05506298828125,2.2172999382019043,-2.232899904251098,-5.092799663543701,-0.1542172878980636,-0.2217789888381958,0.4423711597919464
2.074916015625,3.402899980545044,-2.8178999423980717,-5.902999877929688,-1.2800768613815308,0.233158528804779,0.0236317571252584
2.09476904296875,1.747499942779541,-4.393199920654297,-2.8753998279571533,-1.4364583492279053,0.5752605199813843,-0.4227536618709564
2.11462060546875,0.5232999920845032,-4.85099983215332,-3.6150999069213863,-0.989374816417694,0.1942202448844909,-0.6947806477546692
2.134473876953125,-0.7069999575614929,-4.6315999031066895,-5.327099800109863,-0.4573286175727844,-0.2588148713111877,-0.7362322211265564
2.154326904296875,-2.111599922180176,-3.9733998775482178,-7.731299877166748,0.3267430961132049,0.0761138051748275,-0.5904448628425598
2.174179931640625,-3.559299945831299,-3.7386999130249023,-11.606999397277832,0.822032630443573,0.7452555894851685,-0.1735555380582809
2.194031494140625,-3.294600009918213,-4.172599792480469,-13.812699317932127,0.4516737461090088,0.9524610638618468,0.3249977529048919
2.213884765625,-2.872999906539917,-5.318199634552002,-13.766900062561035,-0.6322978734970093,0.3718773126602173,0.6778509616851807
2.233738037109375,-1.7490999698638916,-6.36329984664917,-10.364999771118164,-1.6426515579223633,-0.6513219475746155,0.8312828540802002
2.25358935546875,-0.8095999956130981,-6.598099708557129,-6.450999736785889,-1.737091302871704,-1.129786491394043,0.8486663699150085
2.2734423828125,-0.4562999904155731,-6.071799755096436,-5.655900001525879,-1.0934487581253052,-0.770143985748291,0.785136342048645
2.2932958984375,-0.8996999859809875,-5.681699752807617,-7.296199798583984,-0.4149869382381439,0.2326174825429916,0.6910631060600281
2.31314892578125,-0.5697999596595764,-5.35260009765625,-8.345199584960938,-0.1012814566493034,0.9955183267593384,0.5404062867164612
2.33300048828125,-0.5094999670982361,-5.14769983291626,-8.65310001373291,-0.1893856823444366,1.159928321838379,0.2234545052051544
2.352853515625,-1.829699993133545,-4.318399906158447,-9.32349967956543,-0.6186144948005676,0.8433780074119568,-0.0256039798259735
2.372706787109375,-4.018499851226807,-3.363600015640259,-7.890199661254883,-0.8388575911521912,0.6795265078544617,0.0929736867547035
2.392558349609375,-3.900999784469605,-3.163300037384033,-6.678599834442139,-0.6285454034805298,0.8956331610679626,0.4305727183818817
2.412411376953125,-2.365499973297119,-3.679799795150757,-6.024399757385254,-0.203365758061409,1.1933339834213257,0.5767266154289246
2.432264404296875,-1.1834999322891235,-4.31689977645874,-5.064699649810791,0.2501405775547027,1.1669096946716309,0.4781503975391388
2.45211767578125,-0.5848999619483948,-4.465199947357178,-5.470200061798096,0.4450066089630127,0.757106363773346,0.2421120703220367
2.47196923828125,-0.8434999585151672,-3.436499834060669,-4.310100078582764,0.2697580754756927,0.479302316904068,0.1691398620605468
2.49182080078125,0.3780999779701233,-3.40149998664856,-0.6674000024795532,-0.0688357874751091,0.2877698838710785,0.1095543131232261
2.51167529296875,2.47790002822876,-1.6532999277114868,7.837199687957764,0.1231329813599586,-0.4704011380672455,-0.0267733503133058
2.531527099609375,3.9612998962402335,3.053299903869629,8.222100257873535,0.6691592335700989,-1.4396871328353882,-0.2646093666553497
2.551380126953125,4.225399971008301,8.048399925231934,4.666599750518799,0.4761432707309723,-0.7670722007751465,0.0659559890627861
2.571233154296875,4.786200046539307,8.213799476623535,6.868899822235107,-0.0556236431002616,0.2501929402351379,0.4653571248054504
2.591086181640625,3.9069998264312735,7.216499805450439,5.694399833679199,-1.0691014528274536,0.3415958285331726,0.507663905620575
2.610937744140625,2.7749998569488525,5.517699718475342,9.772299766540527,-2.076383352279663,0.0689754113554954,0.5870240330696106
2.630791015625,4.847599983215332,4.829899787902832,13.361099243164062,-1.7763088941574097,-0.1949009150266647,0.32606241106987
2.65064404296875,3.2723000049591064,5.93809986114502,10.04029941558838,-1.28894305229187,0.6396980881690979,-0.0784176439046859
2.67049560546875,-1.3852999210357666,6.734099864959717,9.31999969482422,-1.0138094425201416,2.0463287830352783,-0.3137403726577759
2.6903486328125,-6.122600078582764,5.89330005645752,7.9456000328063965,-0.8692088723182678,2.4881763458251958,-0.1357167959213256
2.7102021484375,-6.592899799346924,4.029399871826172,4.437099933624268,-1.1715173721313477,1.3964554071426392,0.2674891650676727
2.730053466796875,-2.786799907684326,2.228199958801269,2.554299831390381,-1.4273651838302612,0.0818908512592315,0.6401169300079346
2.74990673828125,2.1773998737335205,0.7355999946594238,0.7544999718666077,-1.109872341156006,-0.5481730103492737,0.5810026526451111
2.769759765625,5.343699932098389,-0.1842999905347824,-1.7809998989105225,-0.3734132051467895,-0.2049365639686584,0.1092750653624534
2.789611572265625,5.38569974899292,-0.7549999952316284,-4.265899658203125,0.2455154657363891,0.6695955395698547,-0.4796164631843567
2.809464599609375,3.4189000129699707,-1.0924999713897705,-5.528899669647217,0.6356838345527649,1.2009611129760742,-0.8424530029296875
2.829317626953125,1.788699984550476,-1.3187999725341797,-7.649899959564209,0.5748067498207092,1.0466041564941406,-0.9811891913414
2.849170654296875,2.757200002670288,-0.5652999877929688,-6.935999870300293,0.2104343473911285,0.3093421459197998,-0.9722880125045776
2.8690224609375,1.2066999673843384,-1.1139999628067017,-6.904999732971191,0.0344877056777477,-0.590532124042511,-0.9756041169166564
2.88887548828125,0.6972000002861023,-0.8942999839782715,-6.611999988555908,-0.044697880744934,-0.7916813492774963,-0.8251044154167175
2.908728515625,1.0033999681472778,-0.8414999842643738,-2.1205999851226807,0.3357490003108978,-0.5444729328155518,-0.6285977959632874
2.928580078125,-0.5497999787330627,-0.8937999606132507,-1.9328999519348145,0.9818000793457032,-0.5451536178588867,-0.498919814825058
2.948433349609375,-0.7859999537467957,-0.3030999898910522,-1.4362000226974487,1.2454146146774292,-0.5300564765930176,-0.3147701323032379
2.968284912109375,-1.5881999731063845,-0.3023000061511993,2.7319998741149902,1.401726245880127,-0.4840147197246551,-0.1915498822927475
2.988139404296875,-3.162899971008301,0.6319000124931335,9.21399974822998,1.9400731325149536,-0.6899635791778564,-0.0188495554029941
3.007989501953125,-4.069200038909912,2.687599897384644,11.69569969177246,2.543555498123169,-1.4212042093276978,0.4491779208183288
3.02784423828125,0.6335999965667725,4.453999996185303,10.887899398803713,2.346089124679565,-1.439774513244629,0.7981390357017517
3.04769580078125,3.722299814224243,4.6591997146606445,18.48509979248047,1.86724054813385,-0.4832293093204498,0.5169839859008789
3.067548828125,0.8998000025749207,5.62529993057251,23.10260009765625,2.2120301723480225,0.2636145353317261,-0.0515046678483486
3.08740185546875,-1.494499921798706,7.46589994430542,17.747499465942383,1.9450647830963133,-0.357617974281311,-0.494905561208725
3.10725341796875,-0.335999995470047,7.848199844360352,11.218999862670898,1.0953162908554075,-0.7433182597160339,-0.5948780179023743
3.127106689453125,1.5439000129699707,7.445399761199951,6.136099815368652,0.6319488286972046,0.0359537824988365,-1.2251163721084597
3.146958251953125,0.093199998140335,8.565999984741211,-0.7770999670028687,0.507594108581543,1.5505330562591553,-1.3069723844528198
3.166811279296875,-1.931899905204773,5.4923996925354,-5.926599979400635,-0.4230154454708099,2.776120662689209,-0.7941597104072571
3.186664306640625,-2.9539999961853027,-0.9292999505996704,-0.6327999830245972,-1.0564303398132324,2.507636785507202,-0.2748369872570038
3.20651611328125,-3.5443999767303467,-4.795199871063232,2.2468998432159424,-0.4838401675224304,1.035940170288086,0.1563465893268585
3.226370849609375,-0.2786000072956085,-6.275899887084961,-1.7146999835968018,0.5378057360649109,-0.5763949751853943,0.5663244128227234
3.24622216796875,2.909600019454956,-6.72599983215332,-9.305099487304688,1.1262959241867063,-1.2024096250534058,0.5168617963790894
3.266075439453125,3.499300003051758,-5.935999870300293,-13.803099632263184,1.0416125059127808,-0.9180257320404052,0.3519805371761322
3.285927001953125,2.554299831390381,-5.39109992980957,-16.070199966430664,0.4546059072017669,-0.4024554789066314,0.4146029651165008
3.3057802734375,1.3626999855041504,-5.995699882507324,-14.9375,-0.4832642078399658,-0.1962622702121734,0.6853035092353821
3.32563330078125,2.6068999767303467,-6.752299785614014,-11.510899543762209,-1.2573177814483645,-0.4587772488594055,0.7480829954147339
3.345484619140625,2.510699987411499,-6.755199909210205,-8.234700202941895,-1.6358447074890137,-0.7639131546020508,0.6480756402015686
3.365337890625,2.4407999515533447,-6.643199920654297,-5.87470006942749,-1.5722274780273438,-0.8600982427597046,0.4824090003967285
3.385191162109375,2.0225000381469727,-6.276000022888184,-4.850299835205078,-1.233651041984558,-0.5568124055862427,0.2667386829853058
3.405044189453125,1.097599983215332,-6.033299922943115,-4.679299831390381,-0.7413111329078674,-0.1469043642282486,0.0084473937749862
3.424895751953125,-0.6836999654769897,-5.434700012207031,-5.771999835968018,-0.3392570912837982,0.1252273768186569,-0.1637467890977859
3.444748779296875,-2.450700044631958,-4.831599712371826,-7.063999652862549,-0.2932851314544678,0.094806283712387,-0.1201484650373458
3.46460205078125,-3.0598998069763184,-4.814199924468994,-7.360099792480469,-0.462948590517044,-0.1319468915462494,0.0975290015339851
3.48445361328125,-2.748800039291382,-5.023900032043457,-6.154699802398682,-0.4059984982013702,-0.1586853414773941,0.2301740199327469
3.504306640625,-3.7010998725891113,-5.163899898529053,-5.324999809265137,-0.0615403093397617,-0.0943175926804542,0.3413340449333191
3.52415966796875,-4.477399826049805,-5.134399890899658,-4.742799758911133,0.371510773897171,-0.1857728511095047,0.5497438311576843
3.544011474609375,-2.6527998447418213,-5.273200035095215,-6.15399980545044,0.6522993445396423,-0.483351469039917,0.7013605833053589
3.563864501953125,-0.1388999968767166,-4.131499767303467,-6.384899616241455,0.4361577928066253,-0.6069382429122925,0.6119822263717651
3.583717529296875,1.991199970245361,-2.1382999420166016,-0.5758000016212463,0.426663190126419,-0.0033335788175463,0.3364122211933136
3.603570556640625,3.081699848175049,1.4642999172210691,11.572699546813965,1.34076189994812,0.769079327583313,-0.0133343152701854
3.62342236328125,3.3235998153686523,6.331299781799316,11.238200187683104,2.436811208724976,-0.1699776202440261,-0.3206693530082702
3.643275390625,2.0708999633789062,9.492199897766112,5.520599842071533,1.2783664464950562,-1.0034945011138916,0.037123154848814
3.66312841796875,4.405900001525879,10.124300003051758,7.318399906158447,0.1494525372982025,-1.8034836053848269,0.1592612862586975
3.68297998046875,4.196099758148193,10.858999252319336,7.773699760437012,-0.3293087184429168,-1.0184868574142456,0.2538930475711822
3.702833251953125,3.8646998405456543,9.479899406433104,9.20199966430664,-0.5067563652992249,0.5884028673171997,0.50471431016922
3.722686279296875,2.9357998371124268,6.142399787902832,10.548799514770508,-0.7145727276802063,1.2159359455108645,0.2277829200029373
3.74253955078125,-0.1859999895095825,4.332200050354004,12.380000114440918,-0.4314453899860382,0.6529276967048645,-0.3589095175266266
3.762390869140625,-3.485299825668335,4.696899890899658,6.766599655151367,-0.0053756139241158,-0.1645670980215072,-0.4861091077327728
3.782244384765625,-4.461199760437012,4.230299949645996,-0.7827000021934509,-0.310424268245697,-0.6863507032394409,-0.0662177950143814
3.802095703125,-2.9693000316619877,2.756199836730957,-4.6057000160217285,-0.9696002006530762,-0.7944738864898682,0.39041268825531
3.821948974609375,-0.921999990940094,0.1752000004053115,-5.149199962615967,-1.4465289115905762,-0.5505117774009705,0.6514965295791626
3.841802001953125,0.642300009727478,-2.223700046539306,-4.049699783325195,-1.5062540769577026,-0.3227812051773071,0.5118178129196167
3.861655029296875,0.4697999954223633,-3.2535998821258545,-3.608500003814697,-1.2222191095352173,-0.1129577085375785,0.1900489032268524
3.8815068359375,-0.4982999861240387,-3.2470998764038086,-4.836599826812744,-0.8600982427597046,0.1112472862005233,-0.0120602250099182
3.90135986328125,-1.4395999908447266,-2.920099973678589,-6.741199970245361,-0.7711388468742371,0.2856754958629608,0.0372278727591037
3.921212890625,-0.8756999969482422,-3.536799907684326,-6.902899742126465,-0.89626145362854,0.2884680032730102,0.1141794398427009
3.94106591796875,-0.4456999897956848,-3.756699800491333,-5.848599910736084,-0.8634842038154602,0.1545488983392715,-0.0195651408284902
3.960917724609375,-1.4469999074935913,-3.512699842453003,-5.128699779510498,-0.5806536078453064,0.1447925120592117,-0.1666440367698669
3.980770751953125,-2.0536999702453613,-2.603399991989136,-4.645299911499023,-0.1810081005096435,0.5348736047744751,-0.1717578470706939
4.000623779296875,-2.915799856185913,-1.899799942970276,-2.936100006103516,0.3421717882156372,1.102454662322998,-0.249442458152771
4.020475341796875,-4.250699996948242,-0.6891999840736389,-2.3148000240325928,0.6680945754051208,1.1553905010223389,-0.1877799779176712
4.04032861328125,-4.512799739837647,1.5751999616622925,0.8715999722480774,0.6952693462371826,1.1165918111801147,0.0478918328881263
4.060181640625,-2.3722000122070312,3.3088998794555664,7.274099826812744,0.648180365562439,0.8130092620849609,0.3337767720222473
4.080033203125,2.1385998725891118,3.964900016784668,17.041799545288086,1.546623468399048,0.5138424038887024,0.1769240200519561
4.09988623046875,5.424799919128418,6.500799655914307,17.980998992919922,2.635115623474121,1.4388145208358765,-0.2214822769165039
4.119739501953125,3.909600019454956,9.08080005645752,19.069499969482425,2.8117778301239014,2.4577550888061523,-0.1883559376001358
4.139591064453125,3.945499897003174,8.670000076293945,20.47249984741211,2.7032182216644287,2.100660800933838,-0.164549633860588
4.159444091796875,3.094399929046631,8.365599632263184,17.014799118041992,2.5222973823547363,1.0710910558700562,-0.5283809900283813
4.179297119140625,-0.2427999973297119,8.428400039672852,8.543499946594238,1.822978973388672,-0.500019371509552,-0.7323924899101257
4.199150634765625,-1.4265999794006348,8.13659954071045,-0.3064000010490417,0.6632774472236633,-1.5160976648330688,-0.4168369770050049
4.219001953125,0.1937000006437301,6.614699840545654,-6.392999649047852,-0.399837464094162,-0.8433430790901184,0.1294161677360534
4.238855224609375,1.1205999851226809,1.9678999185562132,-8.229700088500977,-1.3203589916229248,0.233839213848114,0.5271068811416626
4.25870654296875,-0.2456999868154525,-2.921599864959717,-7.879899978637695,-2.1667041778564453,0.4454603791236877,0.6437821388244629
4.2785595703125,-0.7213999629020691,-7.029799938201904,-5.762199878692627,-2.7553513050079346,-0.3837280869483948,0.5695707201957703
4.2984130859375,0.7466999888420105,-8.475199699401855,-4.100399971008301,-2.803627014160156,-1.6192466020584106,0.2697231769561767
4.318264404296875,2.483099937438965,-7.3379998207092285,-3.354599952697754,-2.153404712677002,-2.1746976375579834,-0.2500358819961548
4.33811767578125,2.4937000274658203,-5.431299686431885,-4.2129998207092285,-0.9947329759597778,-1.8599973917007449,-0.7242418527603149
4.357970703125,0.5285999774932861,-4.082200050354004,-6.5329999923706055,0.1193979755043983,-0.771208643913269,-0.8822639584541321
4.377822509765625,-0.555899977684021,-3.429099798202514,-8.694199562072754,0.6544111967086792,0.1591391265392303,-0.7083069682121277
4.397675537109375,-0.7392999529838562,-3.382699966430664,-10.105199813842772,0.4491430222988128,0.4390899240970611,-0.4011639356613159
4.417528564453125,-0.4581999778747558,-4.133800029754639,-10.35059928894043,-0.3316998183727264,-0.1417556405067443,-0.1411622315645218
4.437380126953125,-0.496099978685379,-4.48259973526001,-8.513199806213379,-1.0186264514923096,-0.7256904244422913,-0.0283790528774261
4.4572333984375,-1.0543999671936035,-4.443399906158447,-6.9532999992370605,-1.1039206981658936,-0.7991338968276978,0.2038020938634872
4.4770849609375,-0.3463000059127807,-4.6514997482299805,-5.906399726867676,-0.7693935036659241,-0.482251912355423,0.3500955998897552
4.49693798828125,-0.0120999999344348,-4.872999668121338,-6.430899620056152,-0.3667635023593902,-0.2663721442222595,0.3047868609428406
4.516791015625,-0.264299988746643,-4.8673996925354,-7.582199573516846,-0.177238181233406,-0.0770388320088386,0.2109753936529159
4.536644287109375,-0.0828000009059906,-4.668900012969971,-8.10830020904541,-0.2249380350112915,0.184812918305397,0.1080009713768959
4.556495849609375,-0.0318999998271465,-4.804399967193604,-6.926599979400635,-0.2446253448724746,0.4481132924556732,-0.1046848446130752
4.576348876953125,-1.1759999990463257,-4.510900020599365,-5.579599857330322,-0.0571595318615436,0.4552167654037475,-0.3192556202411651
4.596201904296875,-2.2054998874664307,-3.9248998165130615,-5.70580005645752,0.1298175901174545,0.2639461457729339,-0.3005631566047668
4.616053466796875,-2.22979998588562,-3.389999866485596,-6.793099880218506,-0.008848818950355,0.1739744246006012,-0.213139608502388
4.63590673828125,-1.022499918937683,-3.53659987449646,-4.431099891662598,-0.4559323489665985,0.2271196991205215,-0.1713564246892929
4.655759765625,0.4937999844551086,-4.360699653625488,3.605299949645996,-0.4224569499492645,-0.0021816615480929,-0.6164328455924988
4.67561279296875,-0.6354999542236328,-1.444000005722046,12.391200065612791,0.7238404154777527,-1.1800520420074463,-1.189860701560974
4.69546435546875,-0.001300000003539,6.8531999588012695,4.31220006942749,1.2792216539382937,-2.697563409805298,-0.9007993340492249
4.715317626953125,2.157399892807007,12.542099952697754,-7.674899578094482,-0.5313305854797363,-1.996848702430725,0.0677711367607116
4.735170654296875,-0.8441999554634094,9.669699668884276,1.0096999406814575,-3.816493988037109,1.6785005331039429,1.239323377609253
4.755022216796875,-1.941499948501587,-1.1639999151229858,28.025598526000977,-3.975982189178467,3.049212455749512,2.014371633529663
4.774875244140625,3.208699941635132,-5.8003997802734375,34.58259963989258,-1.8008307218551636,1.1713777780532837,1.1012853384017944
4.794728759765625,3.851799964904785,-2.1069998741149902,18.25669860839844,-0.025795966386795,-0.909665584564209,-0.4562988877296448
4.814580078125,0.3179999887943268,1.878999948501587,2.3032000064849854,0.1424886733293533,-0.6966830492019653,-0.918008267879486
4.854286376953125,-1.972999930381775,2.122900009155273,0.1077999994158744,-0.9327563047409058,1.1881502866744995,-0.4038866460323334
4.8741396484375,-0.6187999844551086,0.434499979019165,0.6089999675750732,-0.8620006442070007,0.6201678514480591,-0.217136412858963
4.91384423828125,2.563999891281128,-0.5982999801635742,-1.138700008392334,-0.2296155095100402,-0.4853411614894867,-0.4908040463924408
4.933697265625,2.751699924468994,-0.4249999821186065,-2.6425998210906982,0.1789486110210418,-0.2751685976982116,-0.5963441133499146
4.953548828125,2.1998000144958496,-0.1527999937534332,-3.908999919891357,0.4420395493507385,0.1209687665104866,-0.694623589515686
4.973402099609375,1.4931999444961548,0.1973000019788742,-3.925099849700928,0.5397779941558838,0.3078062534332275,-0.6518805027008057
4.993255126953125,0.9872999787330629,0.0692000016570091,-2.404399871826172,0.6405532956123352,0.3290643692016601,-0.4885176420211792
5.013106689453125,1.2911999225616455,0.1581999957561493,-2.6511998176574707,0.7331255674362183,0.0118507854640483,-0.3788411617279053
5.032959716796875,1.0006999969482422,0.8575999736785889,-4.432199954986572,0.5458691716194153,-0.1234994977712631,-0.2304009199142456
5.05281298828125,0.5198000073432922,1.5911999940872192,-5.772500038146973,0.0877900645136833,0.2508037984371185,0.0750491544604301
5.07266455078125,-0.5867999792098999,1.8292999267578125,-4.588599681854248,-0.4151614606380462,0.7478910088539124,0.5269498229026794
5.092517578125,-0.2069999873638153,0.4310999810695648,-2.029099941253662,-0.6421939134597778,0.9206786155700684,0.9590933322906494
5.112369140625,1.160899996757507,-1.01829993724823,-0.5185999870300293,-0.5279970169067383,0.5611233711242676,0.9437344074249268
5.132222412109375,1.4839999675750732,-0.9799000024795532,-0.5916999578475952,-0.2732836604118347,0.2470862567424774,0.5636540651321411
5.152076904296875,-0.4742999970912933,0.0449000000953674,2.2983999252319336,0.2314132004976272,0.4552167654037475,0.307614266872406
5.171928466796875,-2.0160999298095703,0.311599999666214,5.210400104522705,1.2755564451217651,0.2468942701816558,0.3814591467380523
5.191781494140625,-2.033099889755249,1.216099977493286,1.4751999378204346,1.8348296880722048,-0.1829279512166977,0.3532546460628509
5.211634765625,-1.5514999628067017,3.2461998462677,2.200999975204468,1.1958297491073608,-0.2131046950817108,0.400151640176773
5.231486328125,-1.4723999500274658,3.543099880218506,12.403900146484377,0.1463982164859771,-0.2882411181926727,0.3933972120285034
5.251337890625,-4.039299964904785,1.9030998945236208,25.189599990844727,0.4064173698425293,-0.9151633977890016,0.1629788428544998
5.27119091796875,-3.060999870300293,1.3526999950408936,21.444799423217773,1.5589978694915771,-2.2011919021606445,-0.2521477043628692
5.291044189453125,-2.240499973297119,4.634299755096436,8.81089973449707,1.631114840507507,-2.52413010597229,-0.8897165060043335
5.3108974609375,-3.5931999683380127,8.921699523925781,1.7705999612808228,0.8462403416633606,-1.4782938957214355,-0.8051727414131165
5.33075048828125,-2.848099946975708,9.883599281311035,0.5069000124931335,-0.2793399393558502,-0.3553839325904846,-0.2896373867988586
5.350601806640625,-3.6969997882843018,8.221599578857422,0.9473999738693236,-1.6575915813446045,-0.1419301778078079,0.4457221925258636
5.370455078125,-3.827699899673462,4.418499946594238,-0.5659999847412109,-3.011897325515747,-0.4575206041336059,1.3137617111206057
5.390308349609375,-1.382200002670288,-1.2192999124526978,0.7077999711036682,-3.750782251358032,-0.8608313202857971,1.902374029159546
5.410161376953125,2.10290002822876,-4.276700019836426,2.875,-3.265371322631836,-0.7628659605979919,1.6256520748138428
5.430012939453125,2.6819000244140625,-3.8190999031066895,2.9631998538970947,-1.5547916889190674,-0.0365297421813011,0.8024674654006958
5.449865966796875,0.4165999889373779,-2.4621999263763428,-0.5518999695777893,0.4473627805709839,0.7552039623260498,0.1257684230804443
5.46971923828125,-1.071499943733215,-2.4261999130249023,-6.34089994430542,1.3552656173706057,0.4405734539031982,-0.1203229948878288
5.489572265625,-1.5115000009536743,-2.647199869155884,-9.4621000289917,1.4684677124023438,-0.3752283453941345,-0.170326679944992
5.509423828125,-2.132299900054932,-2.5555999279022217,-10.971699714660645,1.4143624305725098,-0.7623947262763977,-0.0739670544862747
5.52927685546875,-2.887699842453003,-2.7727999687194824,-10.670599937438965,1.5459253787994385,-0.6590014100074768,0.2346595227718353
5.549128662109375,-2.237799882888794,-3.3655998706817627,-9.9822998046875,1.8927747011184688,-0.2408205270767212,0.6115459203720093
5.568981689453125,-0.5160999894142151,-4.574399948120117,-10.646900177001951,2.238332509994507,0.3491531014442444,0.7582582831382751
5.588834716796875,0.5321999788284302,-5.324899673461914,-12.400099754333496,2.1287431716918945,0.6153332591056824,0.5684013962745667
5.608687744140625,-0.5507999658584595,-5.124300003051758,-12.03529930114746,1.7124123573303225,0.6447769999504089,0.3821747303009033
5.62853955078125,-1.3830000162124634,-4.998899936676025,-11.133299827575684,1.3410062789916992,0.5889264345169067,0.4264013767242431
5.648392578125,-1.2908999919891355,-5.158199787139893,-10.646100044250488,1.0955780744552612,0.7426725029945374,0.5740736722946167
5.668244140625,-0.0028999999631196,-5.671899795532227,-9.670299530029297,0.9279741048812866,0.9855524897575378,0.5490806102752686
5.68809716796875,0.0209999997168779,-5.774999618530273,-9.241700172424316,0.725760281085968,0.8944812417030334,0.2906671464443207
5.707950439453125,-0.0841000005602836,-5.62470006942749,-7.649899959564209,0.2975960969924927,0.6901904344558716,0.0368788056075573
5.727803466796875,-0.7281999588012695,-4.810199737548828,-2.240299940109253,0.1628566682338714,0.8892278075218201,-0.1974141895771026
5.74765673828125,-1.9720999002456665,-3.721999883651733,7.037099838256836,0.5917887687683105,0.5167919993400574,-0.304664671421051
5.767508056640625,0.2340999990701675,-0.6261999607086182,9.845600128173828,1.3741151094436646,-0.4900535345077514,-0.3735179007053375
5.787361572265625,2.851599931716919,3.332399845123291,3.546099901199341,1.3609379529953003,-1.105264663696289,-0.4935616552829742
5.807212890625,3.013399839401245,6.411900043487549,-0.1779999881982803,0.0859923735260963,-0.8288044929504395,-0.3523645102977752
5.827066162109375,1.6861999034881592,6.951399803161621,1.8762999773025515,-1.4716615676879885,-0.1446354389190673,-0.0435110591351985
5.84691748046875,-0.1660999953746795,5.146499633789063,10.716400146484377,-2.3508362770080566,0.5037020444869995,0.4034677743911743
5.8667705078125,1.285599946975708,2.471400022506714,16.037599563598633,-2.181713819503784,0.1530479192733764,0.4579220414161682
5.8866240234375,2.4233999252319336,2.0946998596191406,15.339599609375,-1.4183766841888428,-0.4231725335121155,-0.0312064867466688
5.90647705078125,1.5291999578475952,3.2421000003814697,8.450300216674805,-0.5841267704963684,-0.333340436220169,-0.4152661859989166
5.92632861328125,0.8896999955177307,3.1893999576568604,1.8441998958587649,-0.6011088490486145,0.1500284969806671,-0.5397779941558838
5.946181640625,-0.5834999680519104,2.2992000579833984,0.1482999920845031,-1.1206759214401243,0.1881115883588791,-0.6215815544128418
5.966034912109375,-1.0127999782562256,1.5160999298095703,0.6439999938011169,-1.3095380067825315,-0.1565909385681152,-0.7201926708221436
5.985886474609375,-1.8954999446868896,1.1007000207901,-0.5954999923706055,-1.1158937215805054,-0.5809328556060791,-0.8313875794410706
6.005739501953125,-1.8490999937057493,1.0428999662399292,-2.34689998626709,-0.7708421349525452,-0.5990144610404968,-0.7231248021125793
6.025592529296875,-1.6305999755859375,1.04229998588562,-3.598199844360352,-0.3443709015846252,-0.2045525908470153,-0.5344023704528809
6.0454443359375,-0.7963999509811401,0.6636999845504761,-4.069799900054932,-0.1133765876293182,0.21425661444664,-0.323217511177063
6.06529736328125,0.4420999884605407,-0.2430999875068664,-3.0520999431610107,-0.0252549145370721,0.1422617882490158,-0.3293436169624328
6.085150390625,1.295199990272522,-0.6263999938964844,-0.9576999545097352,0.1152964532375335,-0.184830367565155,-0.5005429983139038
6.10500341796875,1.2668999433517456,-0.2143999934196472,-1.1328999996185305,0.3639709651470184,-0.2155656218528747,-0.6366961002349854
6.12485498046875,0.7137999534606934,0.6992999911308289,-1.829100012779236,0.4555483758449554,0.3424859642982483,-0.5033704042434692
6.144708251953125,0.2239999920129776,1.2460999488830566,-1.3011000156402588,0.4232597947120666,0.9772447347640992,-0.2413441240787506
6.164561279296875,0.045899998396635,1.136799931526184,-0.0754999965429306,0.2662674188613891,1.2075060606002808,0.0384496040642261
6.184412841796875,-0.1410000026226043,0.7847999930381775,1.1405999660491943,0.0230208933353424,0.8655611276626587,0.2221280485391616
6.204265869140625,-0.1292999982833862,0.7815999984741211,1.6480998992919922,-0.1856506764888763,0.4322656989097595,0.4152138233184814
6.224119140625,0.1130999997258186,0.6886999607086182,1.0149999856948853,-0.3006678819656372,0.2399129569530487,0.6332054734230042
6.24397216796875,0.8244999647140503,0.4210000038146972,-0.2829000055789947,-0.438321977853775,0.156154602766037,0.7511024475097656
6.26382373046875,1.3658000230789185,0.0709999948740005,-1.3451999425888062,-0.6418797373771667,0.0179419852793216,0.749531626701355
6.2836767578125,1.6970999240875244,-0.1034999936819076,-2.195299863815308,-0.8382816314697266,-0.1880243122577667,0.6921277642250061
6.3035302734375,1.761099934577942,-0.2113000005483627,-2.487299919128418,-0.956335723400116,-0.3860493898391723,0.610760509967804
6.323381591796875,1.8447999954223635,-0.550599992275238,-2.743199825286865,-1.0482796430587769,-0.4786041975021362,0.5153957009315491
6.34323486328125,2.115000009536743,-0.8319000005722046,-2.4893999099731445,-1.0225186347961426,-0.4990594387054443,0.3410373330116272
6.363087890625,2.1278998851776123,-0.715499997138977,-2.414999961853028,-0.8333947062492371,-0.4515515863895416,0.0578925721347332
6.382939697265625,1.3125,-0.3622999787330627,-2.2771999835968018,-0.6239901185035706,-0.4432263672351837,-0.2755525708198547
6.402792724609375,0.6825999617576599,0.1133999973535537,0.5218999981880188,-0.0321838706731796,-0.192422553896904,-0.6790552735328674
6.422645751953125,-2.478299856185913,1.598599910736084,3.1223998069763184,1.1895116567611694,0.2191086262464523,-0.965934991836548
6.442498779296875,-5.681399822235107,3.408799886703491,3.966799974441528,2.436270236968994,0.6800326108932495,-0.5020439624786377
6.4623505859375,-3.357499837875366,3.0555999279022217,4.467499732971191,3.247342109680176,0.9697747230529784,0.0958185791969299
6.48220361328125,-1.0295000076293943,3.2956998348236084,1.1769999265670776,2.591639280319214,0.6820746660232544,0.0952426195144653
6.502056640625,-2.4646999835968018,3.578199863433838,8.345799446105957,0.8941670656204224,0.1263269335031509,0.1116312593221664
6.521908203125,-2.0497000217437744,2.6273000240325928,21.358299255371094,1.035940170288086,-0.2631083726882934,0.3474775850772857
6.541761474609375,0.5604000091552734,1.1160999536514282,20.149200439453125,2.341132402420044,-0.3974114656448364,0.2696184515953064
6.561614501953125,0.820099949836731,2.08270001411438,12.198800086975098,2.592529535293579,-0.564631462097168,0.0096865771338343
6.581466064453125,0.2944999933242798,3.9392998218536377,5.404399871826172,1.9437382221221924,-1.0306344032287598,0.0831823945045471
6.601319091796875,1.2870999574661257,4.8643999099731445,0.4860999882221222,0.7912799119949341,-1.1014772653579712,0.3870616555213928
6.62117236328125,1.5791000127792358,4.1875,-1.0514999628067017,-0.2685887217521667,-0.5548052787780762,0.7349407076835632
6.64102392578125,2.358999967575073,1.4228999614715576,-1.5433999300003052,-0.9429490566253662,0.051312681287527,0.9450609087944032
6.660876953125,1.7043999433517456,-1.1514999866485596,-3.853599786758423,-1.4498624801635742,0.5090602040290833,0.8222769498825073
6.68072998046875,0.6845999956130981,-2.890300035476685,-4.457499980926514,-1.809173345565796,0.7328288555145264,0.5449616312980652
6.7005830078125,-0.7432000041007996,-3.3260998725891118,-4.184000015258789,-1.85374915599823,0.4672420918941498,0.1430820971727371
6.720433349609375,-1.924499988555908,-3.2860000133514404,-3.5339999198913574,-1.469706892967224,-0.0640186741948127,-0.0693070217967033
6.740287841796875,-2.164499998092652,-2.8688998222351074,-3.9046998023986816,-0.6545508503913879,-0.2707703709602356,-0.1378111988306045
6.76014111328125,-1.4046999216079712,-2.9742000102996826,-5.477399826049805,0.2488141357898712,-0.0392699092626571,-0.1964891701936721
6.779992431640625,-0.854699969291687,-3.0511999130249023,-7.719799995422363,0.8573929667472839,0.1589645892381668,-0.3123441338539123
6.799845703125,-0.7106999754905701,-2.872499942779541,-9.949799537658691,0.9953787326812744,0.1861568242311477,-0.3613006174564361
6.819698974609375,-0.8704999685287476,-2.746299982070923,-11.301300048828123,0.6590014100074768,0.0493055507540702,-0.2662325203418731
6.83955029296875,-0.689300000667572,-3.1185998916625977,-10.943699836730955,0.1560673415660858,-0.156154602766037,-0.0588699541985988
6.8792568359375,0.3030000030994415,-4.154999732971191,-8.240900039672852,-0.2597922682762146,0.0067893308587372,0.1367465406656265
6.89910986328125,0.5943999886512756,-4.226799964904785,-6.834199905395508,-0.0035430183634161,0.3662224411964416,0.1025729998946189
6.91896142578125,0.0966999977827072,-3.7343997955322266,-6.792399883270264,0.3544414639472961,0.7761130332946777,0.0417133681476116
6.938814453125,-0.8847999572753906,-3.058799982070923,-7.673699855804443,0.4984311163425445,1.0634117126464844,0.0403869189321994
6.958667724609375,-0.6904999613761902,-3.015399932861328,-6.80649995803833,0.2954842448234558,1.477648138999939,0.0047822021879255
6.978519287109375,-2.1982998847961426,-2.271399974822998,-2.4385998249053955,0.2166128158569336,1.8295762538909912,-0.2849948108196258
6.998372314453125,-5.21619987487793,0.7595999836921692,3.624599933624268,0.4874006509780884,1.295400857925415,0.0181514248251914
7.018225341796875,-4.618599891662598,1.1878999471664429,10.402400016784668,1.2307887077331543,0.807563841342926,0.4603305757045746
7.038076904296875,-1.7773998975753784,2.2971999645233154,12.339300155639648,2.485837459564209,-0.0727104172110557,0.3710570037364959
7.05793017578125,-0.3686999976634979,4.2291998863220215,2.0058999061584477,2.5676586627960205,-0.9260019063949584,0.2662325203418731
7.077783203125,0.8485999703407288,7.055899620056152,-4.267699718475342,0.9081122875213624,-1.1545352935791016,0.7130193710327148
7.097634765625,2.733099937438965,4.860599994659424,-3.061300039291382,-0.9881879687309264,-0.200468510389328,1.2036314010620115
7.11748779296875,3.5528998374938965,1.6154999732971191,9.467899322509766,-1.7397441864013672,0.8755444288253784,1.1176564693450928
7.137339599609375,3.827999830245972,-0.0957999974489212,16.222599029541016,-0.9574177861213684,0.4627042412757873,0.4906120598316192
7.157192626953125,2.588399887084961,1.0016000270843506,11.870399475097656,0.0339117459952831,-0.2504896521568298,-0.1571494489908218
7.177045654296875,-0.4637999832630157,2.819200038909912,3.275899887084961,-0.0262497514486312,-0.2899166345596313,-0.1338318437337875
7.196898681640625,-0.3182999789714813,2.7732999324798584,-0.1173999980092048,-0.708411693572998,-0.0890467017889022,0.2549577057361603
7.21675048828125,1.040499925613403,0.8396999835968018,0.7639999985694885,-1.1726343631744385,-0.2624975144863128,0.2446427941322326
7.236603515625,1.4118999242782593,-0.6344999670982361,1.5592999458312988,-1.045853614807129,-0.4012860953807831,-0.1066570729017257
7.25645654296875,0.53329998254776,-0.6893999576568604,0.4817999899387359,-0.4783772826194763,-0.2536835968494415,-0.412909984588623
7.27630810546875,-0.4957000017166137,-0.6840999722480774,-2.810699939727783,-0.1010894700884819,0.0087790060788393,-0.4435928761959076
7.296161376953125,-0.6840999722480774,-0.7317999601364136,-5.106299877166748,-0.2927789688110351,0.1232551485300064,-0.3604279458522796
7.3160146484375,-0.4601999819278717,-1.167799949645996,-5.912600040435791,-0.8092567920684814,0.0749967992305755,-0.2030516117811203
7.33586767578125,1.250999927520752,-2.8220999240875244,-1.831499934196472,-0.9624966979026794,0.1232376992702484,-0.1971349418163299
7.355718994140625,1.955399990081787,-3.3452999591827397,1.3919999599456787,-0.2900562584400177,0.2842617630958557,-0.5309291481971741
7.375572509765625,0.5931999683380127,-2.4565999507904053,-0.1291999965906143,0.4758640229701996,0.4133463203907013,-0.7778757810592651
7.395425537109375,-0.7915999889373779,-1.2185999155044556,-3.0673999786376958,0.61515873670578,0.3983364999294281,-0.6522993445396423
7.415277099609375,-1.3662999868392944,-0.7856999635696411,-4.557899951934815,0.2157750576734542,0.2069611400365829,-0.2895850241184234
7.435130126953125,-0.047699999064207,-1.567699909210205,-2.634399890899658,-0.245428204536438,0.038344882428646,0.0046949358657002
7.454983154296875,1.2913999557495115,-2.7319998741149902,1.1455999612808228,-0.150342658162117,-0.0272620432078838,-0.0794997438788414
7.4748349609375,1.039099931716919,-2.6176998615264893,1.9246999025344849,0.3310714960098266,-0.0266686305403709,-0.2691297829151153
7.49468798828125,-0.4296999871730804,-1.4668999910354614,0.3782999813556671,0.6024527549743652,0.0976511687040329,-0.2410648763179779
7.514541015625,-1.056299924850464,-0.3513999879360199,-0.1495999991893768,0.4876275360584259,0.1499761492013931,0.0179419852793216
7.534392578125,0.0351999998092651,-0.0103000001981854,2.645699977874756,0.4036597609519958,0.1784075498580932,0.2791479527950287
7.554245849609375,1.1628999710083008,-0.1155999973416328,4.521100044250488,0.3810577392578125,0.0450469478964805,0.1716531366109848
7.574098876953125,0.6317999958992004,1.9799000024795528,8.012399673461914,0.3735877275466919,0.0169122405350208,-0.0743335708975792
7.593951904296875,-1.0348999500274658,4.8715996742248535,11.25819969177246,0.727715015411377,0.1179493516683578,-0.1119628697633743
7.613803466796875,-2.033499956130981,6.911499977111816,9.836099624633787,0.6838200092315674,-0.1952848881483078,0.0967959612607956
7.63365673828125,-1.438499927520752,7.517599582672119,9.00879955291748,0.2325127571821212,-0.892247200012207,0.2585879862308502
7.653509765625,-0.3559999763965606,7.030299663543701,6.936800003051758,-0.1137431040406227,-0.9447118043899536,0.2501231431961059
7.673361328125,0.9053999781608582,5.422599792480469,3.917399883270264,-0.6150016784667969,-0.6229952573776245,0.3715980350971222
7.69321435546875,2.920599937438965,3.0344998836517334,1.656999945640564,-1.3639049530029297,-0.117460660636425,0.225112572312355
7.713067626953125,2.3469998836517334,0.710599958896637,2.981599807739258,-1.6118115186691284,0.4551120400428772,-0.1410226076841354
7.732920654296875,1.309000015258789,-0.2078000009059906,3.360100030899048,-1.0861183404922483,0.6232745051383972,-0.4661948978900909
7.752772216796875,0.6556999683380127,0.0716999992728233,-0.3407999873161316,-0.4742408692836761,0.2520080804824829,-0.5716825723648071
7.772625244140625,0.5763999819755554,0.0626000016927719,-4.408400058746338,-0.1838006228208542,-0.0516617447137832,-0.4519355595111847
7.792478759765625,-0.5670999884605408,-0.4168999791145324,-8.29949951171875,-0.1343729048967361,-0.0891165137290954,-0.2300692945718765
7.812330078125,0.4092999994754791,-1.3456000089645386,-9.28279972076416,-0.2199114859104156,0.1195375993847847,-0.0404916368424892
7.832183349609375,0.609499990940094,-1.807999968528748,-8.7347993850708,-0.0042760567739605,0.3227812051773071,0.0919264927506446
7.852036376953125,-1.90339994430542,-2.1995999813079834,-6.578199863433838,0.501153826713562,0.6793519258499146,0.1039518117904663
7.8718876953125,-1.806399941444397,-3.0607998371124268,-9.414299964904783,1.0732378959655762,1.1293152570724487,0.2912256419658661
7.8917412109375,0.0834999978542327,-4.225500106811523,-8.179800033569336,1.029499888420105,1.1784113645553589,0.2447998821735382
7.931447265625,0.2316000014543533,-4.4274001121521,-4.293499946594238,-0.1603259444236755,-1.146140217781067,-0.061121430248022
7.951298828125,0.8211999535560608,-4.518099784851074,-3.413800001144409,0.130725160241127,-0.8297644257545471,-0.1580744683742523
7.971152099609375,0.0416000001132488,-4.21589994430542,-5.029900074005127,0.7463027834892273,0.3669729232788086,-0.1519134640693664
7.991005126953125,0.421999990940094,-4.025599956512451,-6.206599712371826,1.0144376754760742,0.95534086227417,-0.0307876076549291
8.010856689453124,1.5327999591827393,-4.299699783325195,-7.329399585723877,0.4439419507980346,0.3722089231014251,-0.1879196017980575
8.030709716796874,2.69599986076355,-4.491600036621094,-2.34309983253479,-0.1814269721508026,-0.697503387928009,-0.640535831451416
8.05056298828125,-0.9241999983787536,0.2184000015258789,2.291300058364868,0.08751080930233,-0.8452978730201721,-1.0646333694458008
8.07041455078125,-2.758699893951416,3.2314000129699707,4.335299968719482,0.7985056042671204,-0.50221848487854,-0.6378654837608337
8.090267578125,-0.2978000044822693,3.43999981880188,3.803299903869629,1.0475815534591677,-0.3280870020389557,-0.3562740683555603
8.11012060546875,-0.1821999996900558,3.9517998695373535,4.009299755096436,1.1332422494888306,-0.0044331364333629,-0.1694016605615615
8.129972412109375,0.3170999884605407,4.4614996910095215,0.6025999784469604,0.956108808517456,0.1132893189787864,0.0480140075087547
8.149825439453124,1.083400011062622,3.783699989318848,-2.389400005340576,0.0338593870401382,0.3465700149536133,-0.0625351443886756
8.169678466796874,0.3982999920845032,2.434900045394897,1.88319993019104,-1.272502064704895,0.4483401775360107,-0.2005383372306823
8.189531494140626,-0.1754999905824661,1.024799942970276,9.088600158691406,-1.773516297340393,0.1147903054952621,-0.1942900568246841
8.209383056640625,-1.861199975013733,1.493499994277954,11.659500122070312,-0.9232966303825378,6.981316983e-05,-0.0761138051748275
8.229236328125,-1.0782999992370603,1.417799949645996,7.290499687194824,-0.0048520155251026,0.034225907176733,0.0768468454480171
8.24908935546875,-0.1301999986171722,1.2416999340057373,2.7690999507904053,0.1195026934146881,-0.0337721221148967,-0.0504051074385643
8.26894091796875,-0.2381999939680099,1.3899999856948853,0.7124999761581421,0.0616450272500515,-0.1953896135091781,-0.1733111888170242
8.2887939453125,0.2687000036239624,0.7739999890327454,-0.7342000007629395,0.0804945826530456,-0.2027199864387512,-0.2287428528070449
8.308645751953126,0.4962999820709228,0.1455999910831451,-2.384699821472168,0.0167377069592475,-0.0700226128101348,-0.238953024148941
8.32850048828125,0.373799979686737,-0.2173999994993209,-2.3248000144958496,-0.1613382399082183,0.0712268874049186,-0.2107834070920944
8.348350341796875,-0.0720999985933303,-0.5518999695777893,-0.8611999750137329,-0.1525941342115402,0.0593761019408702,-0.1373225003480911
8.368205078125,-0.5771999955177307,-0.7608999609947205,-0.7008999586105347,-0.0244520623236894,-0.0236666649580001,-0.0557283610105514
8.388056884765625,-0.6730999946594238,-0.6972999572753906,-0.9293999671936036,0.0635299831628799,-0.1035503819584846,0.0254119932651519
8.407909912109375,-0.3396999835968017,-0.9432999491691588,-1.4139999151229858,0.0397062413394451,-0.1834166496992111,0.0828333273530006
8.42776123046875,-0.2511000037193298,-0.8622999787330627,-1.1172999143600464,0.0018849555635824,-0.2403318434953689,0.0706334710121154
8.447614501953124,-0.023199999704957,-0.7455999851226807,-0.3642999827861786,0.123674027621746,-0.0357443429529666,0.0805294886231422
8.4674677734375,0.2169999927282333,-0.5800999999046326,-0.3705999851226806,0.4494746327400207,0.4092622697353363,0.0813497975468635
8.50717236328125,-0.7800999879837036,-0.2663999795913696,-1.4221999645233154,-0.5034925937652588,-0.3074397444725036,0.1102524474263191
8.527025390625,-0.0279999990016222,-0.6471999883651733,0.9605000019073486,-0.676367461681366,-0.4759512841701507,0.1492780148983001
