seconds_elapsed,accel_x,accel_y,accel_z,gyro_x,gyro_y,gyro_z
0.21731591796875,0.2312999963760376,-0.646399974822998,2.441699981689453,-0.2468593716621399,0.0011344640515744,-0.0798139050602912
0.237169189453125,0.2312999963760376,-0.646399974822998,2.441699981689453,-0.2468593716621399,0.0011344640515744,-0.0798139050602912
0.257022216796875,-0.022699998691678,-0.1315999925136566,-0.2583999931812286,-0.2468593716621399,0.0011344640515744,-0.0798139050602912
0.276873779296875,0.0447000004351139,-0.1030000001192092,-0.3461999893188476,-0.2468593716621399,0.0011344640515744,-0.0798139050602912
0.296726806640625,0.0802999958395958,-0.0756999999284744,-0.3055000007152557,-0.2468593716621399,0.0011344640515744,-0.0798139050602912
0.316580322265625,0.0083999997004866,-0.0144999995827674,0.031700000166893,-0.2468593716621399,0.0011344640515744,-0.0798139050602912
0.336431640625,-0.1983999907970428,-0.0907999947667121,-0.1083000004291534,-0.2468593716621399,0.0011344640515744,-0.0798139050602912
0.356284912109375,-0.095100000500679,-0.0562999993562698,-0.2730000019073486,-0.2468593716621399,0.0011344640515744,-0.0798139050602912
0.376137939453125,-0.3192999958992004,-0.0661999955773353,-0.2348999977111816,-0.2932851314544678,0.0390081070363521,-0.0529358349740505
0.3959892578125,-0.4250999987125397,-0.1920999884605407,0.1301999986171722,-0.2945068478584289,0.0622209869325161,-0.0052883476018905
0.4158427734375,-0.3504999876022339,-0.4000999927520752,0.1001999974250793,-0.2807885706424713,0.0778765901923179,-0.0165108144283294
0.43569580078125,-0.2187999933958053,-0.2445999979972839,0.0851999968290329,-0.2423389703035354,0.085713118314743,-0.0268780700862407
0.455548828125,-0.1103999987244606,-0.2016000002622604,-0.4305000007152557,-0.2366666495800018,0.081559233367443,-0.0300196632742881
0.475400390625,0.1345999985933303,-0.2631999850273132,-0.6579999923706055,-0.2942450642585754,0.1057145893573761,-0.0381703488528728
0.495253662109375,0.3581999838352203,-0.2839999794960022,-0.3897999823093414,-0.3013834655284881,0.1726828813552856,-0.0694815590977668
0.515106689453125,0.4329999983310699,-0.2437999993562698,-0.2989999949932098,-0.2982244193553924,0.2853613197803497,-0.1178795397281646
0.534958251953125,0.1759999990463256,-0.0563999973237514,0.0168999992311,-0.2859023809432983,0.3472332656383514,-0.1709550023078918
0.554811279296875,-0.163000002503395,0.1605999916791916,0.5191999673843384,-0.2533694505691528,0.3469539880752563,-0.1574286967515945
0.57466455078125,-0.1472999900579452,0.2723999917507171,0.3781999945640564,-0.2152514606714248,0.3226939141750335,-0.1248783096671104
0.59451611328125,-0.1900999993085861,0.2538000047206878,0.1448999941349029,-0.2391275614500045,0.363447368144989,-0.1051735430955886
0.614369140625,-0.81659996509552,0.3127000033855438,0.4319999814033508,-0.2790083289146423,0.4503996670246124,-0.0703367665410041
0.63422216796875,-1.313599944114685,0.1985999941825866,0.852899968624115,-0.2802998721599579,0.4409399926662445,0.0622908025979995
0.65407373046875,-1.091099977493286,-0.2137999981641769,1.0282000303268433,-0.237155333161354,0.2790606915950775,0.1889842450618744
0.673927001953125,-1.0259000062942505,-0.3278999924659729,1.0098999738693235,-0.1423665136098861,0.0579798370599746,0.2386912256479263
0.693780029296875,-0.611299991607666,-0.3201999962329864,0.5065000057220459,-0.0347320511937141,-0.044854961335659,0.2500882148742676
0.713633056640625,-0.488999992609024,-0.1747999936342239,0.1568000018596649,0.0630412921309471,-0.0099832834675908,0.2549751400947571
0.733484619140625,-0.550000011920929,-0.0579000003635883,-0.4502999782562256,0.1055226027965545,0.0386764965951442,0.2927964329719543
0.753337890625,-0.5424999594688416,-0.2233999967575073,-0.2206999957561493,0.0797266364097595,0.0487819537520408,0.358752429485321
0.77319091796875,-0.3646000027656555,-0.2085999995470047,0.0169999990612268,0.0905825868248939,0.0107163218781352,0.364616721868515
0.79304248046875,-0.2079999893903732,-0.303299993276596,-0.0193999987095594,0.1317549049854278,-0.0165108144283294,0.3300941288471222
0.8128955078125,-0.1322999894618988,-0.2483999878168106,-0.4749999940395355,0.1409876942634582,0.0422020629048347,0.2668957412242889
0.8327490234375,-0.1114999949932098,-0.3215999901294708,-0.4296000003814697,0.1212131157517433,0.1958608478307724,0.2043082416057586
0.852600341796875,-0.2458999902009964,-0.4372999966144562,-0.287200003862381,0.0842470452189445,0.3440742194652557,0.1281944364309311
0.87245361328125,-0.2843999862670898,-0.3597999811172485,-0.1062999963760376,0.0009250245057046,0.4049513041973114,0.0152541771531105
0.892306640625,-0.5712999701499939,-0.1147999987006187,0.0035999999381601,-0.1117708832025528,0.319587230682373,-0.0649786069989204
0.912158447265625,-0.6412000060081482,0.096900001168251,-0.1369999945163726,-0.2282541543245315,0.2248682230710983,-0.0838107094168663
0.932011474609375,-0.574400007724762,-0.0524999983608722,0.1059999987483024,-0.3197443187236786,0.2276258468627929,-0.1099382862448692
0.951864501953125,-0.5234999656677246,-0.066500000655651,0.7744999527931213,-0.2660754323005676,0.2900911867618561,-0.1525592356920242
0.971716064453125,-0.4257999956607818,0.0303999986499547,0.3003999888896942,-0.22006855905056,0.24073326587677,-0.1908517479896545
0.9915693359375,-0.3185999989509582,0.0255999993532896,-0.3454000055789947,-0.2927964329719543,0.0667064860463142,-0.2308023422956466
1.01142236328125,-0.380400002002716,0.1805000007152557,-0.6541000008583069,-0.3541447520256042,-0.0858701989054679,-0.2354274690151214
1.031275390625,0.0324999988079071,0.1298999935388565,-0.1750999987125396,-0.2709623575210571,-0.1305680871009826,-0.225112572312355
1.051126953125,0.5256999731063843,-0.0758000016212463,-0.613599956035614,-0.116919606924057,-0.1870992928743362,-0.3276681005954742
1.070980224609375,0.2064999938011169,0.1252000033855438,-1.3487999439239502,-0.0825191661715507,-0.2274687588214874,-0.4100301861763
1.090831787109375,-0.1339000016450882,0.1537999957799911,-1.229099988937378,-0.0630063861608505,-0.2294933497905731,-0.434988409280777
1.110684814453125,-0.1588999927043914,0.2759000062942505,-1.480299949645996,-0.0274016689509153,-0.2024058252573013,-0.4326496720314026
1.130537841796875,-0.3738999962806701,0.3410999774932861,-2.003000020980835,-0.1807463020086288,-0.151442214846611,-0.4279198348522186
1.150390869140625,-0.802899956703186,0.3844999969005584,-0.973800003528595,-0.3698003590106964,-0.1021541208028793,-0.3379131853580475
1.17024267578125,-0.8615999817848206,0.1570999920368194,0.9090999960899352,-0.3407580852508545,-0.0738099738955497,-0.2079908847808838
1.190095703125,-0.6536999940872192,-0.0566999986767768,1.6079999208450315,-0.224065363407135,-0.0711396187543869,-0.1212305724620819
1.209947265625,-0.6805999875068665,-0.0753000006079673,1.411099910736084,-0.1566781997680664,-0.1357167959213256,-0.0325503908097744
1.22980029296875,-0.6434000134468079,-0.1627999991178512,0.9215999841690063,-0.204447865486145,-0.1311963945627212,0.0811229050159454
1.249653564453125,-0.5141000151634216,-0.2628999948501587,1.1434999704360962,-0.309324711561203,-0.0405090935528278,0.1662600636482238
1.269506591796875,-0.5877000093460083,-0.3048999905586242,2.0284998416900635,-0.3352079391479492,0.0175405591726303,0.2431418150663375
1.289358154296875,-0.4675999879837036,-0.4799000024795532,2.472100019454956,-0.2611012458801269,-0.0199491139501333,0.3133215010166168
1.309211181640625,0.0340999998152256,-0.4438000023365021,1.997099995613098,-0.1897347420454025,-0.1613382399082183,0.3430269956588745
1.329064697265625,0.7820000052452087,-0.4208000004291534,0.9151999950408936,-0.2511877715587616,-0.3504272103309631,0.3155904412269592
1.348916015625,0.6614999771118164,0.0756999999284744,0.6118999719619751,-0.3359235227108001,-0.3485422432422638,0.2993065118789673
1.36876904296875,1.0413999557495115,0.2556999921798706,1.5410000085830688,-0.2063502818346023,-0.1769589334726333,0.3415260314941406
1.388622314453125,1.823099970817566,0.1169999986886978,1.2827999591827393,0.0305432621389627,-0.0389382950961589,0.2275560200214386
1.4084736328125,1.4091999530792236,0.5327999591827393,0.4491999745368957,0.1688955128192901,0.097860611975193,0.0817686766386032
1.4283271484375,0.6646999716758728,0.8937999606132507,-0.1306999921798706,0.2468419224023819,0.3197268545627594,0.08335692435503
1.44818017578125,0.1482999920845031,0.895799994468689,-0.4975999891757965,0.3323281407356262,0.5203350186347961,0.189542755484581
1.468033203125,-0.2171999961137771,0.6240999698638916,-1.1996999979019165,0.3542843759059906,0.6893526911735535,0.3658559024333954
1.487884765625,0.1653999984264373,-0.2431999891996383,-1.3274999856948853,0.2685188949108124,0.5253440737724304,0.4487590491771698
1.507738037109375,0.4138000011444092,-1.0760999917984009,-0.8240000009536743,0.3321536183357239,0.1919164061546325,0.3982317745685577
1.527591064453125,-0.0942999944090843,-1.232800006866455,-1.0192999839782717,0.4820599257946014,-0.2777866125106811,0.4411145150661468
1.547442626953125,0.2283999919891357,-0.9666000008583068,-2.0876998901367188,0.7281862497329712,0.0644201040267944,0.4669628441333771
1.567295654296875,0.8282999992370605,-1.5791999101638794,-2.7914998531341557,0.695374071598053,-0.066095620393753,0.6176022291183472
1.58714892578125,2.2943999767303467,-1.657599925994873,-2.5074000358581543,0.521766185760498,-0.479686290025711,0.5277003049850464
1.607001953125,2.568300008773804,-1.435499906539917,-1.5816999673843384,0.4013384580612182,-0.8565377593040466,0.3047519326210022
1.626853515625,2.6561999320983887,-0.636900007724762,0.6577999591827393,0.5374741554260254,-0.8329584002494812,0.1147379428148269
1.64670654296875,2.347399950027466,1.100000023841858,2.959399938583374,0.9194918274879456,-0.2180265337228775,-0.1052957102656364
1.666559814453125,0.9407999515533448,2.524099826812744,5.258500099182129,0.9230522513389589,0.4196469783782959,-0.2433512508869171
1.686411376953125,-1.102999925613403,3.593299865722656,11.67770004272461,0.632961094379425,0.1915847957134246,-0.2913303673267364
1.706264404296875,-1.7458999156951904,3.992899894714356,18.32509994506836,0.942023992538452,-0.5599365234375,-0.376205712556839
1.726117431640625,-1.9571999311447144,4.671899795532227,18.911800384521484,1.5577237606048584,-0.8319635391235352,-0.5651899576187134
1.78567529296875,-4.6417999267578125,7.431999683380127,8.205699920654297,1.8795450925827024,0.1382824331521988,-0.2629163861274719
1.80552685546875,-4.237499713897705,5.041199684143066,5.524600028991699,1.039954423904419,0.0496546179056167,0.2040289938449859
1.825380126953125,-1.3762999773025513,1.870000004768372,2.193300008773804,0.5354670286178589,-0.2886599898338318,0.5329537391662598
1.8452333984375,1.745799899101257,-0.7674999833106995,-4.4766998291015625,0.1829628646373748,0.2399478703737259,0.5235463976860046
1.86508642578125,2.099900007247925,-0.611799955368042,-8.898399353027344,-0.5052553415298462,1.065488576889038,0.3805515766143799
1.884937744140625,0.4659999907016754,-2.630100011825561,-8.097299575805664,-1.3595939874649048,0.8805011510848999,0.4494571983814239
1.904791259765625,0.3175999820232391,-4.92039966583252,-6.188799858093262,-1.771544098854065,-0.3112445771694183,0.3211929500102997
1.924644287109375,1.9000999927520752,-4.684700012207031,-4.59689998626709,-1.2776333093643188,-1.3350547552108765,0.1754928529262542
1.944495849609375,2.086899995803833,-4.516200065612793,-5.803299903869629,-0.038781214505434,-1.240527629852295,-0.0449073202908039
1.964348876953125,0.9363999962806702,-2.8622000217437744,-10.138799667358398,0.8159588575363159,-0.5041383504867554,-0.1622458100318908
1.984201904296875,-1.664199948310852,-1.866099953651428,-14.067899703979492,0.2856929302215576,0.1553517580032348,0.1597674340009689
2.00405517578125,-1.2905999422073364,-3.170799970626831,-10.61709976196289,-0.8810945749282837,0.1320865154266357,0.7321830987930298
2.02390673828125,0.209999993443489,-4.979099750518799,-4.877599716186523,-1.2878260612487793,-0.3858050405979156,0.8144753575325012
2.043759765625,1.0672999620437622,-5.369199752807617,-2.0132999420166016,-0.7996575236320496,-0.6879040598869324,0.6260147094726562
2.06361279296875,0.8906999826431274,-5.2032999992370605,-2.5874998569488525,0.0346447862684726,-0.5230228304862976,0.4151789247989654
2.083464599609375,0.64410001039505,-4.653599739074707,-5.362400054931641,0.6598915457725525,-0.0752760469913482,0.2760238349437713
2.103317626953125,0.7422999739646912,-4.714099884033203,-7.116899967193604,0.7970045804977417,0.2263343036174774,0.1459967941045761
2.123170654296875,0.6976999640464783,-4.838500022888184,-7.361599922180176,0.7453603148460388,0.2846806645393371,-0.0703367665410041
2.143022216796875,0.280599981546402,-4.720900058746338,-6.491999626159668,0.8854928016662598,0.4136081337928772,-0.338000476360321
2.16287548828125,-1.22599995136261,-4.207799911499023,-6.363100051879883,1.2269665002822876,0.6997897624969482,-0.4379205703735351
2.182728515625,-2.428499937057495,-3.888000011444092,-6.669399738311768,1.6143248081207275,0.997769832611084,-0.2800555229187011
2.202580078125,-2.479699850082397,-3.7831997871398926,-8.007299423217773,1.7477902173995972,1.1379371881484983,-0.0108384946361184
2.22243310546875,-1.6277999877929688,-4.241899967193604,-9.337599754333496,1.318578839302063,0.9032078981399536,0.1362578570842743
2.24228466796875,-1.1866999864578247,-4.744400024414063,-7.508299827575684,0.5201604962348938,0.5374042987823486,0.1141270771622657
2.262137939453125,-0.0471999980509281,-4.069900035858154,-0.8953999876976013,0.1308996975421905,0.5535835027694702,0.0438950322568416
2.281990966796875,1.2002999782562256,-2.578399896621704,7.044299602508545,0.7382742762565613,0.3416132926940918,-0.132906824350357
2.301843994140625,4.4355998039245605,1.958799958229065,6.937399864196777,1.5336905717849731,-0.9146921634674072,-0.3662224411964416
2.321695556640625,6.693699836730957,7.348700046539307,1.896399974822998,0.7089003920555115,-2.090171337127685,-0.4852015376091003
2.341548828125,4.656499862670898,8.881099700927734,-3.4567999839782715,-1.4067178964614868,-2.7264137268066406,-0.3077539205551147
2.361400390625,2.3334999084472656,7.186999797821045,3.7082998752594,-3.8000879287719727,-0.9049357771873474,0.4551993310451507
2.38125341796875,3.095499992370605,0.928999960422516,20.910799026489254,-3.526193380355835,0.6759136319160461,0.7827103734016418
2.4011064453125,5.7846999168396,-1.8047999143600464,24.12030029296875,-1.3491919040679932,0.1999972760677337,-0.3723136484622955
2.4209599609375,1.055400013923645,1.815699934959412,13.429999351501465,0.7210129499435425,-0.7311533093452454,-1.6650266647338867
2.440811279296875,-4.105999946594238,5.090699672698975,-2.0850000381469727,0.3725230693817138,-0.7968824505805969,-1.6015664339065552
2.46066455078125,-4.935199737548828,6.071799755096436,-4.599499702453613,-1.131008267402649,-0.4571715295314789,-0.7688000798225403
2.480517578125,-2.8984999656677246,3.568599939346313,-1.2358999252319336,-2.027374505996704,-0.3106162548065185,-0.2644173800945282
2.500369384765625,-0.1930999904870987,1.0120999813079834,1.9300999641418457,-1.8735586404800413,-0.4011290073394775,-0.1187347471714019
2.520222412109375,1.1664999723434448,-0.3562999963760376,2.418099880218506,-1.1065737009048462,-0.3524168729782104,-0.4066093564033508
2.540075439453125,0.6444999575614929,-0.6244999766349792,0.3014000058174133,-0.2248856723308563,-0.346709668636322,-0.5978450775146484
2.559927001953125,0.4217999875545501,-0.4537999927997589,-2.928799867630005,0.1900314539670944,-0.2455503642559051,-0.6535385251045227
2.5797802734375,0.3784999847412109,-0.6818999648094177,-4.754199981689453,0.0981049537658691,-0.2644173800945282,-0.6223844289779663
2.59963330078125,0.045399997383356,-1.1287000179290771,-3.9681999683380127,-0.0152192711830139,-0.2909289300441742,-0.6089802980422974
2.619486328125,-0.1753999888896942,-1.1825000047683716,-3.298699855804444,0.1870643943548202,-0.3880914151668548,-0.5971993207931519
2.639337890625,-0.7572999596595764,-0.8508999943733215,-3.680299997329712,0.5494296550750732,-0.4561069011688232,-0.5619087219238281
2.65919091796875,-1.2350999116897583,-0.4070999920368194,-5.471799850463867,0.7982786893844604,-0.4797037541866302,-0.4610461592674255
2.679044189453125,-1.6547999382019043,-0.2019999921321869,-7.416299819946289,0.7993433475494385,-0.3863111734390259,-0.2490584850311279
2.698895751953125,-1.7999999523162842,-0.0524999983608722,-9.02549934387207,0.3786491751670837,-0.1884082853794098,0.0863239839673042
2.718748779296875,-1.351699948310852,-0.7950999736785889,-6.741299629211426,-0.2897944748401642,-0.0291120912879705,0.3950901925563812
2.738601806640625,-0.7663999795913696,-1.4261000156402588,-1.048699975013733,-0.3439345955848694,0.1079137101769447,0.458550363779068
2.758455078125,0.3276999890804291,-1.241199970245361,6.03879976272583,0.4413937628269195,0.2445380836725235,0.2831622064113617
2.778306640625,2.392699956893921,1.187600016593933,8.976799964904785,1.505346417427063,-0.2083923071622848,-0.1907994002103805
2.79815966796875,2.5978000164031982,6.151599884033203,6.061100006103516,1.237717628479004,-0.1252273768186569,-0.4497538805007934
2.8180126953125,0.6868999600410461,9.081500053405762,18.570199966430664,0.5847899913787842,1.724263072013855,-0.2087588310241699
2.837864501953125,-1.778999924659729,6.324199676513672,34.69479751586914,1.9710177183151243,2.0884435176849365,-0.0567057467997074
2.857717529296875,-2.035599946975708,6.333499908447266,26.89949989318848,3.360910654067993,-0.323147714138031,-0.5022708773612976
2.87757080078125,-3.7853000164031982,9.081500053405762,12.75719928741455,2.338933229446411,-2.050657033920288,-0.7310660481452942
2.897422119140625,-5.126299858093262,10.436399459838867,6.270699977874756,1.2828693389892578,-1.737370491027832,-0.106569804251194
2.917275634765625,-0.6223999857902527,7.500199794769287,-0.7141000032424927,1.036184549331665,-0.2376963943243026,0.6460510492324829
2.937128662109375,3.348299980163574,3.819899797439575,-7.095999717712402,0.200835034251213,0.9409419298171996,0.5592383742332458
2.956981689453125,-1.424899935722351,2.9656999111175537,-8.858699798583984,-1.5589804649353027,1.4161601066589355,0.657954216003418
2.976833251953125,-3.980799913406372,-3.3101999759674072,-0.0700000002980232,-2.790816307067871,1.0697122812271118,1.4417990446090698
2.9966865234375,-1.8875999450683596,-7.869799613952637,4.129499912261963,-2.207440137863159,-0.3687008023262024,1.452183723449707
3.01653955078125,0.3488000035285949,-7.380799770355225,-0.044099997729063,-0.4575555026531219,-1.1133105754852295,1.0685080289840698
3.03639111328125,1.9354000091552732,-5.685800075531006,-9.271499633789062,0.8226609230041504,-0.2748020887374878,0.7223743200302124
3.056244140625,2.687700033187866,-4.725399971008301,-14.405200004577637,0.6683563590049744,0.6764197945594788,0.5081351399421692
3.076097412109375,2.2437000274658203,-4.999399662017822,-13.447599411010742,-0.1880068629980087,0.7990466356277466,0.3325724899768829
3.095948974609375,1.7034000158309937,-4.863699913024902,-9.565699577331545,-0.7036294937133789,0.4955687820911407,0.1656492054462433
3.115800537109375,0.6248999834060669,-5.23829984664917,-7.302399635314941,-0.7702312469482422,0.2816437780857086,0.1219810619950294
3.135655029296875,-0.5209999680519104,-5.288099765777588,-5.726099967956543,-0.5183802247047424,0.3833092153072357,0.2833367586135864
3.155506591796875,0.2644000053405761,-5.276000022888184,-5.741199970245361,-0.057840209454298,0.580548882484436,0.4623551666736603
3.17535986328125,1.7105000019073486,-5.433099746704102,-7.51479959487915,0.0787143483757972,0.5470210909843445,0.325346827507019
3.195212890625,1.2826999425888062,-5.115499973297119,-7.723199844360352,-0.0418704487383365,0.3620162010192871,0.0149923786520957
3.21506591796875,0.2202999889850616,-4.460799694061279,-7.508899688720703,-0.0646644458174705,0.1701521426439285,-0.1832421123981475
3.23491748046875,-0.8619999885559082,-3.943300008773804,-7.5971999168396,0.0224100276827812,0.216019406914711,-0.1923701912164688
3.254770751953125,-0.8471999764442444,-3.999099969863892,-7.666899681091309,0.1634675413370132,0.3819478452205658,-0.1400452256202697
3.274623779296875,-0.3498999774456024,-4.5966997146606445,-7.586599826812744,0.2484999746084213,0.3015230894088745,-0.2678382396697998
3.294475341796875,-2.0288000106811523,-4.199899673461914,-8.269899368286133,0.1625425070524215,-0.0320093370974063,-0.3720867335796356
3.314328369140625,-3.152099847793579,-3.5155999660491943,-8.879199981689453,0.0297578629106283,-0.1461015045642852,-0.1520530879497528
3.334181640625,-2.140399932861328,-3.630699872970581,-8.324600219726562,-0.0933925658464431,0.083915427327156,0.0138230072334408
3.354034912109375,-1.4620999097824097,-4.047299861907959,-5.05019998550415,-0.0862018093466758,0.2771582901477813,-0.1735206395387649
3.37388623046875,-1.2417999505996704,-3.2704999446868896,0.0072999997064471,0.3219608962535858,0.0838456153869628,-0.500019371509552
3.393739501953125,-0.1151999980211258,-0.2978000044822693,3.8757998943328857,0.8095360398292542,-0.3421717882156372,-0.6564008593559265
3.4135927734375,2.71560001373291,5.3506999015808105,1.8604999780654907,0.5759062767028809,-1.0019935369491575,-0.5536882281303406
3.4334443359375,5.097499847412109,8.635499954223633,7.15369987487793,-0.4262093901634216,-0.8144055604934692,-0.0811927169561386
3.45329736328125,5.768899917602539,8.525400161743164,12.29419994354248,-0.6332228779792786,-0.1929985135793686,0.0566708408296108
3.473148681640625,2.0713999271392822,8.50979995727539,14.050699234008787,-1.2719086408615112,1.0080323219299316,0.3575132489204407
3.493001953125,1.3217999935150146,5.034899711608887,21.62660026550293,-0.9460906386375428,0.9730384945869446,0.6506412625312805
3.512853515625,2.7067999839782715,3.365999937057495,15.504399299621582,0.0770737379789352,0.0223227608948946,-0.0300894770771265
3.532708251953125,-1.838499903678894,6.226999759674072,3.537899971008301,0.195756122469902,-0.1302539259195327,-0.5257280468940735
3.552559814453125,-4.974299907684326,6.532199859619141,-4.010900020599365,-0.828926682472229,0.7751879692077637,0.1074075624346733
3.572412841796875,-3.385699987411499,2.757699966430664,-5.386799812316895,-2.1684494018554688,0.8839918375015259,0.6198886036872864
3.59226611328125,-0.3154999911785126,-1.2833999395370483,-1.975299954414368,-3.189554214477539,0.4051083624362945,0.6789854168891907
3.61211767578125,3.1266000270843506,-2.6538000106811523,4.899699687957764,-2.600313663482666,0.2792003154754638,0.0063704517669975
3.631970703125,1.194100022315979,-1.881799936294556,4.695300102233887,-0.8277398347854614,0.2381850779056549,-0.8566774129867554
3.651822265625,-1.3102999925613403,0.1001999974250793,-1.7096999883651731,0.3491182029247284,0.3468667268753052,-1.0220648050308228
3.671675537109375,-1.2731999158859253,-0.0234999991953372,-6.147199630737305,0.1816713213920593,0.2400002181529998,-0.7220426797866821
3.691528564453125,0.6651999950408936,-1.124899983406067,-4.446899890899658,-0.1405688226222992,-0.2093347907066345,-0.6894574165344238
3.711380126953125,0.7247999906539917,-1.450899958610535,-2.966899871826172,0.1942202448844909,-0.3583859205245971,-0.9151284694671632
3.731233154296875,-0.0892999991774559,-1.288100004196167,-2.7084999084472656,0.9323723316192628,0.0364075675606727,-0.9953089356422424
3.75108642578125,-0.9960999488830566,-1.2958999872207642,-3.694799900054932,1.5545647144317627,0.326132208108902,-0.9179908037185668
3.770939453125,-1.5293999910354614,-1.3901000022888184,-4.753699779510498,1.7506176233291626,0.13578662276268,-0.7796909213066101
3.790791015625,-1.861599922180176,-1.243399977684021,-4.536399841308594,1.6360541582107544,-0.2361954003572464,-0.5595525503158569
3.81064404296875,-2.8327999114990234,0.3586999773979187,-4.5966997146606445,1.4626731872558594,-0.3334276974201202,-0.2058790326118469
3.830497314453125,-3.3206000328063965,1.9524999856948853,-2.7725000381469727,0.8392590284347534,-0.0835838168859481,0.5399699807167053
3.850348876953125,-0.4650999903678894,0.8544999957084656,4.871799945831299,0.3145257830619812,-0.5725029110908508,0.9435948133468628
3.870201904296875,2.363899946212769,1.5716999769210815,12.050199508666992,0.549481987953186,-0.9953089356422424,0.5755223035812378
3.890054931640625,1.1089999675750732,4.451499938964844,17.6564998626709,1.070637345314026,-0.3506889939308166,0.232757106423378
3.909906494140625,1.2030999660491943,5.9629998207092285,18.98569869995117,1.5882495641708374,-0.6698748469352722,-0.0630587488412857
3.929759765625,2.1405999660491943,8.255599975585938,13.503999710083008,1.3245477676391602,-0.8137248754501343,-0.442266434431076
3.949613037109375,1.2376999855041504,9.817999839782717,11.051599502563477,0.5861688256263733,0.0199142061173915,-0.5300390124320984
3.969466064453125,-1.0504000186920166,9.066299438476562,9.639100074768066,0.0768643021583557,0.7999891042709351,-0.497523546218872
3.9893173828125,-2.4450998306274414,7.5326995849609375,4.829799652099609,-0.3675837814807892,1.0044020414352417,-0.1665044128894806
4.0091708984375,-2.1108999252319336,5.010799884796143,-1.3133999109268188,-1.0803064107894895,1.0298315286636353,0.318417876958847
4.02902392578125,-1.895900011062622,1.767499923706055,-3.759599924087525,-1.7193063497543335,1.0959620475769043,0.6461557745933533
4.04887548828125,-1.3981999158859253,-1.371999979019165,-4.288599967956543,-1.962029337882996,0.6747791767120361,0.8829271793365479
4.068728515625,0.5034999847412109,-3.505999803543091,-5.089399814605713,-1.8588279485702517,-0.223314881324768,0.9086533188819884
4.088581787109375,3.1903998851776123,-3.981799840927124,-5.922199726104736,-1.443998098373413,-0.8373740911483765,0.5977228879928589
4.108434814453125,2.519399881362915,-3.362299919128418,-6.745499610900879,-0.7644018530845642,-0.8260119557380676,0.1930334120988845
4.128286376953125,2.583400011062622,-3.229599952697754,-7.842299938201904,-0.0357617959380149,-0.6200456619262695,0.0185179430991411
4.148139404296875,2.7079999446868896,-2.704399824142456,-9.911499977111816,0.2453234791755676,-0.4589168727397918,-0.3284709751605987
4.16799267578125,1.2049000263214111,-2.014999866485596,-10.964900016784668,0.0388161242008209,-0.3614751398563385,-0.4697204530239105
4.18784423828125,0.0063000000081956,-1.7813999652862549,-10.71299934387207,-0.3087138235569,-0.1331686228513717,-0.2355496287345886
4.207697265625,-0.1143999993801117,-2.191999912261963,-8.963600158691406,-0.619242787361145,0.2380280047655105,0.0675616934895515
4.22755029296875,-0.1283999979496002,-3.0652999877929688,-4.330999851226807,-0.5789780616760254,0.5368981957435608,0.2693043053150177
4.247403564453125,0.6089999675750732,-4.257499694824219,-1.3918999433517456,-0.0421497002243995,0.2663023471832275,0.244712620973587
4.267255126953125,1.5953999757766724,-5.142199993133545,-2.7690999507904053,0.5368109345436096,-0.2952224314212799,-0.0675442442297935
4.287108154296875,1.2437000274658203,-4.98289966583252,-5.840099811553955,0.7426550388336182,-0.63023841381073,-0.4348662495613098
4.306961181640625,-0.3105999827384949,-4.2042999267578125,-7.388899803161621,0.7715576887130737,-0.4828976988792419,-0.5190958380699158
4.326812744140625,-0.760699987411499,-4.06820011138916,-7.972399711608887,0.7144505381584167,-0.0811752602458,-0.4235739409923553
4.346666015625,-0.9422999620437622,-4.567699909210205,-6.983199596405029,0.6259448528289795,-0.0197047665715217,-0.3812671601772308
4.366519287109375,-1.4395999908447266,-4.785599708557129,-5.540499687194824,0.6293832063674927,-0.3392570912837982,-0.3798359930515289
4.38637060546875,-1.7843999862670898,-5.071799755096436,-5.447299957275391,0.7454126477241516,-0.7777535915374756,-0.3562042415142059
4.4062236328125,-1.9488999843597408,-4.729399681091309,-4.170300006866455,0.812712550163269,-0.7725001573562622,-0.3842516839504242
4.4260771484375,-1.3422999382019043,-4.054500102996826,-1.5003999471664429,0.8719316124916077,-0.8545830249786377,-0.4417602717876434
4.445928466796875,-1.225600004196167,-2.41540002822876,3.175999879837036,0.9171879887580872,-1.1129441261291504,-0.6222273111343384
4.46578173828125,2.020099878311157,-0.1223999932408332,4.814199924468994,1.086153268814087,-1.87462317943573,-0.8619133830070496
4.485634765625,3.678900003433228,5.455899715423584,-1.1913999319076538,0.4081976115703583,-1.6492488384246826,-1.037214279174805
4.505488037109375,-0.5719000101089478,7.6454997062683105,1.046299934387207,-0.8844456076622009,0.1866455078125,-0.2442762851715088
4.525339599609375,-2.622999906539917,7.47599983215332,11.120800018310549,-1.751176118850708,1.964874267578125,0.8510574698448181
4.545192626953125,-0.7811999917030334,3.4890999794006348,16.472000122070312,-2.358114242553711,1.0297616720199585,1.3803285360336304
4.565045654296875,3.513799905776977,1.0406999588012695,16.40869903564453,-2.640456199645996,-0.932459592819214,0.762639045715332
4.5848974609375,2.379999876022339,2.21399998664856,12.998899459838867,-1.7938493490219116,-0.94331556558609,0.0401949323713779
4.60475048828125,-0.4949999749660492,3.765799999237061,6.656499862670898,-0.9924989342689514,0.6682167649269104,-0.0297578629106283
4.62460205078125,-1.4233999252319336,3.040099859237671,2.87310004234314,-0.8049458265304565,1.5166561603546145,0.1042834222316742
4.644455078125,-2.1009998321533203,2.138000011444092,2.2818000316619877,-0.7789928317070007,1.3432751893997192,0.2841919660568237
4.664308349609375,-0.2119999974966049,1.0774999856948853,-0.3646000027656555,-0.730978786945343,0.4205894470214844,0.411775529384613
4.684161376953125,1.688499927520752,0.3626999855041504,-3.4818999767303467,-0.9401390552520752,-0.3866427838802337,0.1905899494886398
4.704012939453125,1.9672999382019043,0.4788999855518341,-3.8173999786376953,-0.835279643535614,-0.5097757577896118,0.0359014235436916
4.723865966796875,2.0571000576019287,0.5748999714851379,-4.4639997482299805,-0.3073175847530365,-0.0169645994901657,0.031991884112358
4.743718994140625,1.6492999792099,0.5146999955177307,-4.581399917602539,0.2554114758968353,0.6744301319122314,0.1108284071087837
4.763572265625,1.4526000022888184,0.017799999564886,-4.514999866485596,0.55653315782547,0.5312607884407043,0.1439198553562164
4.783423828125,2.295599937438965,-0.2305999994277954,-5.112099647521973,0.5290267467498779,-0.4882558584213257,0.0446280688047409
4.80327685546875,2.397599935531616,0.2800999879837036,-4.384699821472168,0.4641703069210052,-1.5258017778396606,-0.1965589821338653
4.82312841796875,1.81659996509552,0.8782999515533447,-2.976999998092652,1.010039448738098,-1.5980758666992188,-0.3470936417579651
4.842981689453125,0.5202000141143799,1.560099959373474,-2.872400045394897,1.9023914337158203,-0.5578944683074951,-0.3329041004180908
4.862834716796875,-0.8789999485015869,1.858399987220764,-0.5841999650001526,2.52854585647583,0.4798782765865326,0.0130376098677515
4.88268798828125,-0.5227000117301941,1.7283999919891355,0.6399999856948853,2.474039077758789,-0.053284902125597,0.251676470041275
4.902539306640625,0.0709000006318092,3.1243999004364014,1.393399953842163,1.6500866413116455,-1.127185940742493,0.2027548998594284
4.922392822265625,0.734499990940094,4.560100078582764,11.79699993133545,1.3594194650650024,-0.1225395649671554,0.3109478652477264
4.942245849609375,0.5633000135421753,4.5625996589660645,20.338298797607425,2.1109931468963623,1.647782802581787,0.3936240971088409
4.96209716796875,-1.698199987411499,3.530399799346924,22.48970031738281,2.254040479660034,1.2583649158477783,0.2332283407449722
4.981950439453125,-1.117900013923645,3.1475000381469727,21.13640022277832,1.7340718507766724,-0.6439741253852844,-0.1807288378477096
5.0018017578125,-0.505899965763092,4.6296000480651855,15.419699668884276,1.161376953125,-1.312121033668518,-0.6952693462371826
5.0216552734375,-1.4229999780654907,6.200299739837647,9.683499336242676,0.9387951493263244,-0.4062428474426269,-0.7184473276138306
5.04150830078125,-1.2882000207901,5.481199741363525,3.381500005722046,0.7002086639404297,0.661968469619751,-0.5067214369773865
5.06135986328125,-0.2825999855995178,3.0284998416900635,-3.542399883270264,0.0432318039238452,1.1337659358978271,-0.5090776085853577
5.081212890625,-1.7495999336242676,0.866599977016449,-5.430900096893311,-0.6793345212936401,1.2712628841400146,-0.465863287448883
5.101066162109375,-2.4268999099731445,-2.0035998821258545,-6.892999649047852,-0.8429416418075562,0.977855622768402,-0.2648537158966064
5.120919189453125,-3.07289981842041,-2.76639986038208,-10.524299621582031,-1.0645111799240112,0.491310179233551,0.1521403491497039
5.160623779296875,1.083899974822998,-5.761300086975098,-8.513999938964844,-1.121321678161621,-0.2755351364612579,0.7953465580940247
5.18047705078125,2.73039984703064,-5.542900085449219,-8.765799522399902,-0.5492725372314453,0.0252549145370721,0.6091722846031189
5.20032861328125,2.387699842453003,-4.578199863433838,-9.949399948120115,-0.4125434756278991,0.2983640432357788,0.4982565939426422
5.220181640625,1.611199975013733,-4.066699981689453,-9.000800132751465,-0.6713060140609741,0.2975786328315735,0.5236336588859558
5.24003466796875,1.6858999729156494,-4.062699794769287,-7.649999618530273,-0.9758659601211548,0.38128462433815,0.4691444933414459
5.259887939453125,1.056299924850464,-3.950500011444092,-5.558099746704102,-0.936107337474823,0.7959399223327637,0.3568500280380249
5.279739501953125,0.2338999956846237,-3.589200019836426,-3.8357999324798575,-0.4209559559822082,1.3548117876052856,0.3256260752677917
5.299592529296875,-0.8639000058174133,-2.880499839782715,-5.961599826812744,-0.026616271585226,1.3756685256958008,0.3836059272289276
5.319445556640625,-1.9631999731063845,-3.0807998180389404,-8.226200103759766,-0.2551322281360626,1.06215500831604,0.6217212080955505
5.33929736328125,-1.17739999294281,-4.02869987487793,-8.20580005645752,-0.4705407619476318,0.5373519659042358,0.8237953782081604
5.359150390625,-0.282399982213974,-4.392199993133545,-7.951299667358398,-0.4100301861763,0.1693143844604492,0.7576299905776978
5.37900341796875,-0.5286999940872192,-4.049099922180176,-7.493399620056152,-0.0676489621400833,0.0011868239380419,0.6989170908927917
5.39885498046875,-0.0803999975323677,-3.2131998538970947,-7.960700035095215,0.3273714184761047,0.1947962045669555,0.643555223941803
5.418708251953125,1.0329999923706057,-2.540699958801269,-7.024799823760986,0.634706437587738,0.4957956671714782,0.4664566814899444
5.4385615234375,1.2131999731063845,-1.5959999561309814,-5.409999847412109,0.7819424271583557,0.6495417356491089,0.2005906850099563
5.45841455078125,2.5434999465942383,-0.6069999933242798,-0.7472999691963196,0.9192474484443665,0.6682865619659424,0.0516442917287349
5.478265869140625,5.156099796295166,0.2529000043869018,2.805799961090088,1.1322823762893677,0.2129127085208892,-0.3728197813034057
5.498119140625,3.11299991607666,3.640799999237061,2.807499885559082,0.5798856616020203,-0.0366519130766391,-0.9650972485542296
5.517972412109375,-2.449899911880493,8.925199508666992,10.661799430847168,-0.2090206295251846,0.747192919254303,-0.1108807697892189
5.537823974609375,-0.1134999990463256,6.398799896240234,19.595298767089844,0.2332632541656494,1.0728888511657717,0.9212371110916138
5.557677001953125,1.417799949645996,3.3152999877929688,16.197898864746094,0.1673072576522827,0.4587772488594055,0.6529451012611389
5.577528564453125,-1.0393999814987185,3.2844998836517334,15.76959991455078,-0.578349769115448,-0.8925963044166565,0.0680503845214843
5.59738330078125,-1.0023999214172363,3.935099840164185,14.361899375915527,-0.3733782768249511,-1.901745676994324,-0.0638441443443298
5.61723486328125,-0.0522999987006187,4.4268999099731445,6.410299777984619,0.2678556740283966,-1.5367275476455688,-0.2071182280778885
5.637087890625,-1.5381999015808103,5.600299835205078,-1.4680999517440796,0.2696010172367096,-0.2608045637607574,-0.1334304213523864
5.656939453125,-2.045099973678589,4.801799774169922,-4.848099708557129,-0.3455402851104736,0.3740764260292053,0.2649409770965576
5.676792724609375,-1.2324999570846558,1.905900001525879,-5.399899959564209,-1.2420285940170288,0.0427605658769607,0.5549448728561401
5.696645751953125,0.5546000003814697,-0.7852999567985535,-3.8733999729156494,-1.697629451751709,-0.3643549382686615,0.6219131946563721
5.716498779296875,2.025500059127808,-2.415899991989136,-3.583599805831909,-1.478695273399353,-0.2314481139183044,0.3868522346019745
5.736350341796875,1.495100021362305,-2.921299934387207,-4.831899642944336,-1.017980694770813,0.2570171952247619,0.0801106095314025
5.75620361328125,0.1862999945878982,-3.04289984703064,-6.023399829864502,-0.7255682945251465,0.4528082311153412,-0.0416261032223701
5.776056640625,-0.4390999972820282,-3.21399998664856,-7.342399597167969,-0.7740011811256409,0.2013935446739196,-0.0045378562062978
5.795908203125,0.1049999967217445,-3.591099977493286,-7.004099845886231,-0.8924217224121094,-0.0767944902181625,0.0023561944253742
5.81576123046875,1.3065999746322632,-3.642199993133545,-6.32889986038208,-0.8146673440933228,-0.2866179645061493,-0.2137504667043686
5.835614501953125,0.1544999927282333,-3.249199867248535,-4.6651997566223145,-0.531836748123169,-0.1396437883377075,-0.5036321878433228
5.855467529296875,-1.0253000259399414,-1.7522000074386597,-1.980699896812439,0.1870818436145782,0.2375742197036743,-0.4898266494274139
5.875319091796875,-2.050600051879883,-0.3378999829292297,-2.711699962615967,0.721815824508667,0.6581112742424011,-0.1128529906272888
5.895172119140625,-0.915499985218048,0.0929000005125999,-1.6132999658584597,0.4247258603572845,0.5953317880630493,0.2449220567941665
5.915025634765625,1.9121999740600584,-0.421999990940094,7.218699932098389,0.3218212723731994,0.4655840396881103,0.1446005254983902
5.934876953125,2.1756999492645264,1.052299976348877,15.170299530029297,1.299170732498169,0.5045921206474304,-0.3868871331214905
5.954730224609375,-0.8989999890327454,4.270199775695801,11.730299949645996,1.9058821201324463,0.4838052690029144,-0.3920533061027527
5.974583251953125,-1.4067000150680542,7.566199779510498,6.828199863433838,0.569029688835144,0.6918834447860718,0.0839852467179298
5.9944365234375,-1.5255999565124512,7.490399837493896,12.135899543762209,-1.469759225845337,1.4000333547592163,0.471657782793045
6.0142880859375,-3.6325998306274414,5.498799800872803,22.089399337768555,-1.8857933282852173,1.4765136241912842,0.612820029258728
6.03414111328125,-3.1928999423980717,4.707499980926514,17.091999053955078,-1.672130107879639,0.1135511174798011,0.5412614941596985
6.05399267578125,-0.7304999828338623,4.031700134277344,7.059199810028076,-1.803378939628601,-0.6177418231964111,0.4547804296016693
6.073845703125,0.4557999968528747,3.287899971008301,-0.8644999861717224,-1.7795900106430054,0.8870810270309448,0.3263591229915619
6.093698974609375,-1.6549999713897705,2.8501999378204346,-1.7264999151229858,-1.449687957763672,2.55713415145874,0.2162113934755325
6.113550537109375,-0.9789999723434448,2.532099962234497,-0.5988999605178833,-0.9623396396636964,2.025367259979248,0.1862789839506149
6.133403564453125,2.222599983215332,1.6638000011444092,-3.4951000213623047,-0.4487590491771698,0.3494498133659363,-0.1176177412271499
6.153256591796875,2.5782999992370605,-0.3100000023841858,-6.121999740600586,-0.0463035851716995,-0.6586349010467529,-0.1691922098398208
6.1731083984375,6.115699768066406,-2.2091000080108643,-10.31190013885498,0.6559994220733643,-0.4344997107982635,-0.2745752036571502
6.19296142578125,6.31749963760376,-2.842099905014038,-12.9197998046875,0.9811193943023682,1.1727042198181152,-0.5460611581802368
6.212814453125,3.840299844741821,-3.064199924468994,-12.800399780273438,0.8419643044471741,1.3284224271774292,-0.6703809499740601
6.232666015625,2.9482998847961426,-3.9973998069763184,-12.725299835205078,0.192806527018547,0.438967764377594,-0.4808556735515594
6.25251904296875,4.432799816131592,-4.680699825286865,-9.536999702453612,-0.4009893834590912,-0.6062400937080383,-0.5520127415657043
6.272372314453125,3.753899812698364,-4.3917999267578125,-7.902099609375,-0.5197415947914124,-1.0778106451034546,-0.8452454805374146
6.292223876953125,1.1643999814987185,-3.50249981880188,-8.075399398803711,-0.36966073513031,-0.4955164194107055,-0.8231496214866638
6.312076904296875,-0.3920999765396118,-2.8773999214172363,-5.645899772644043,0.0142418863251805,0.5998347401618958,-0.419420063495636
6.331929931640625,-1.2668999433517456,-2.727799892425537,-0.7789999842643738,0.6042329668998718,0.0418529957532882,-0.1263792961835861
6.35178173828125,-1.4674999713897705,-1.5477999448776243,-3.640499830245972,0.7420092821121216,-0.363447368144989,0.0535292476415634
6.371634765625,1.218400001525879,-2.8408000469207764,-7.712399959564209,0.3314729332923889,-0.5924869179725647,-0.1495747119188308
6.39148779296875,-0.2116999924182891,-1.5223000049591064,-5.915499687194824,-0.0964468941092491,-0.367496520280838,-0.1128006279468536
6.4113408203125,-0.5546999573707581,-1.4228999614715576,-3.4438998699188232,0.1857030391693115,-0.0630587488412857,0.1243023499846458
6.431192626953125,0.2289000004529953,-1.2448999881744385,-2.0892999172210693,0.8093964457511902,-0.1615825742483139,0.3250850141048431
6.451045654296875,0.1072999984025955,-1.0083999633789062,-2.408499956130981,1.3169556856155396,-0.671812117099762,0.3779161274433136
6.47089892578125,0.3899999856948852,1.275399923324585,-2.8573999404907227,1.56573486328125,-1.0639352798461914,0.23273965716362
6.490750244140625,1.1440999507904053,2.2578999996185303,-2.0023999214172363,1.406037211418152,-0.7710341215133667,0.0711221694946289
6.510603759765625,0.8461999893188477,3.648399829864502,2.799799919128418,1.0798002481460571,-0.2040638923645019,0.0194080621004104
6.530456787109375,-0.526699960231781,6.550899982452393,5.733599662780762,0.5487140417098999,0.0398284122347831,0.2898468375205993
6.55030810546875,-0.0466999970376491,2.924899816513061,6.411599636077881,-0.576604425907135,-0.0238411966711282,0.4377111196517944
6.570161376953125,0.1718000024557113,0.5722000002861023,10.54419994354248,-1.7233381271362305,0.3163932859897613,0.1299397647380828
6.5900146484375,-1.6785999536514282,0.0729999989271164,17.14109992980957,-1.957473993301392,0.5188165903091431,-0.0816814079880714
6.60986767578125,-3.32669997215271,0.4587999880313873,20.83099937438965,-0.809378981590271,0.0265464577823877,-0.2694962918758392
6.62971923828125,-3.38919997215271,2.0318000316619877,10.146299362182615,0.5099154114723206,-0.4016875326633453,-0.3936764597892761
6.649572265625,-2.9395999908447266,2.9114999771118164,0.0466999970376491,0.228725403547287,-0.8203222155570984,-0.5031784176826477
6.669425537109375,-0.4271000027656555,1.3913999795913696,-0.9625999927520752,-0.915041208267212,-1.2676326036453247,-0.5830621123313904
6.689277099609375,0.4605000019073486,0.9287999868392944,1.6978999376296997,-0.9494940042495728,-0.9867218732833862,-0.7205591797828674
6.709130126953125,0.0515000000596046,0.3470000028610229,1.3762999773025513,-0.3365518450736999,-0.4209908545017242,-0.6149842143058777
6.728983154296875,0.4897999763488769,-0.0044999998062849,-0.8603000044822693,0.1511280536651611,-0.043214350938797,-0.5121319890022278
6.74883642578125,-0.5012999773025513,0.3772999942302704,-2.9291999340057373,0.1452462971210479,0.0546113513410091,-0.3320314288139343
6.76868798828125,-0.3889999985694885,-0.0559000000357627,-2.8984999656677246,-0.0793950259685516,0.05148721113801,-0.1252622753381729
6.788541015625,-0.1843999922275543,-0.2550999820232391,-1.7170000076293943,-0.0964294373989105,0.1277406513690948,-0.0701447799801826
6.808392578125,-0.1757999956607818,-0.4912000000476837,0.3175999820232391,0.1414938420057296,0.1940631568431854,-0.0863763466477394
6.82824560546875,-0.801099956035614,-0.4269999861717224,0.644599974155426,0.5564633011817932,0.229161724448204,-0.1308124214410781
6.848098876953125,-0.6812999844551086,-0.4467999935150146,-1.1643999814987185,0.7301933765411377,0.1784250140190124,-0.1066221669316291
6.867951904296875,0.1335999965667724,-0.4095000028610229,-2.1751999855041504,0.5452932119369507,-0.068469263613224,-0.0926944389939308
6.887803466796875,0.3638999760150909,-0.1032999977469444,-1.702799916267395,0.2870543003082275,-0.3102322816848755,-0.0398807749152183
6.907656494140625,0.733299970626831,0.022699998691678,-0.7048999667167664,0.2309943288564682,-0.2042384296655655,0.0900938957929611
6.927510009765625,0.8759999871253967,-0.0588999986648559,-0.9840999841690063,0.2819055914878845,0.0710523501038551,0.1735380887985229
6.947361328125,1.1979999542236328,-0.425599992275238,-0.8621999621391296,0.1334129720926284,0.2464579492807388,0.1934697479009628
6.96721435546875,1.0099999904632568,-0.6581999659538269,0.1136000007390976,-0.1217890754342079,0.1320690661668777,0.1712516993284225
6.987067626953125,0.7935000061988831,-0.7076999545097351,2.1454999446868896,-0.1940457075834274,-0.0770213827490806,0.1600990444421768
7.0069189453125,0.1975999921560287,-0.2929999828338623,2.441999912261963,0.0602836720645427,-0.1314931064844131,0.1608844548463821
7.0267724609375,0.2097999900579452,0.0471000000834465,0.2870999872684479,0.2520430088043213,-0.0752935037016868,0.1672025471925735
7.04662548828125,0.3490999937057495,0.3139999806880951,-1.007699966430664,0.1911135464906692,0.0494277253746986,0.1147728487849235
7.066478515625,0.3086999952793121,0.2198999971151352,-0.873699963092804,0.0595680885016918,0.0905127748847007,0.0778416842222213
7.086330078125,0.2981999814510345,0.1103999987244606,-0.2105000019073486,0.0278903618454933,0.0309272333979606,0.0295135173946619
7.106183349609375,0.1241999939084053,0.1150999963283538,0.1647000014781952,0.0482583530247211,-0.0127583565190434,0.0147305792197585
7.126036376953125,0.2379999905824661,0.0967999994754791,0.1388999968767166,0.1026951745152473,-0.0154287107288837,-0.0169645994901657
7.145887939453125,0.2753999829292297,0.1771999895572662,0.009800000116229,0.1012290939688682,-0.0298800375312566,-0.0374722182750701
7.165740966796875,0.4296999871730804,0.1699000000953674,-0.0998999997973442,0.0663399621844291,-0.0061435587704181,-0.0710872635245323
7.18559423828125,0.3360999822616577,0.0417999997735023,0.1897999942302703,0.0600916855037212,0.0806342139840126,-0.1122944802045822
7.205447265625,-0.1604000031948089,0.091899998486042,-0.0980999991297721,0.0964643508195877,0.0980002358555793,-0.1323134154081344
7.225298828125,-0.4348999857902527,0.0763999968767166,-0.5390999913215637,0.0319569781422615,0.0084822997450828,-0.1103222593665123
7.24515185546875,-0.3170999884605407,-0.093699999153614,-0.2619000077247619,-0.0107686817646026,-0.0023736478760838,-0.044854961335659
7.265005126953125,0.0388999991118907,-0.3556999862194061,-0.1551000028848648,0.0589048638939857,0.0795172005891799,0.0296182371675968
7.284856689453125,0.1481000036001205,-0.7389999628067017,-1.1883999109268188,0.316323459148407,0.148510068655014,0.0130027029663324
7.304709716796875,-1.1116999387741089,0.4505999982357025,-2.0708999633789062,-0.1452462971210479,-0.3119252324104309,0.0305258091539144
7.324562744140625,-0.4140999913215637,-0.0341999977827072,-0.2351000010967254,-0.312658280134201,-0.5378232002258301,0.108210414648056
