seconds_elapsed,accel_x,accel_y,accel_z,gyro_x,gyro_y,gyro_z
0.2175439453125,-0.0762999951839447,0.3179999887943268,1.3035999536514282,-0.281067818403244,0.2784672677516937,0.0423416867852211
0.2373974609375,-0.0762999951839447,0.3179999887943268,1.3035999536514282,-0.281067818403244,0.2784672677516937,0.0423416867852211
0.257248779296875,-0.0001999999949475,0.0472999997437,0.0864999964833259,-0.281067818403244,0.2784672677516937,0.0423416867852211
0.27710205078125,0.3488000035285949,-0.1314999908208847,0.2098999917507171,-0.281067818403244,0.2784672677516937,0.0423416867852211
0.296955078125,0.4438000023365021,-0.1595000028610229,0.0268999990075826,-0.281067818403244,0.2784672677516937,0.0423416867852211
0.316806884765625,0.2735999822616577,-0.089099995791912,0.0798999965190887,-0.281067818403244,0.2784672677516937,0.0423416867852211
0.336659912109375,0.2333000004291534,-0.1339000016450882,-0.1375999897718429,-0.281067818403244,0.2784672677516937,0.0423416867852211
0.356512939453125,-0.0064999996684491,-0.0168999992311,0.0285999998450279,-0.281067818403244,0.2784672677516937,0.0423416867852211
0.376364501953125,-0.1492999941110611,-0.0581000000238418,-0.1568999886512756,-0.281067818403244,0.2784672677516937,0.0423416867852211
0.3962177734375,-0.5256999731063843,-0.2629999816417694,0.0310999993234872,-0.404462605714798,0.2931280434131622,0.0875457152724266
0.41607080078125,-1.0750999450683594,-0.5361999869346619,0.8270999789237976,-0.4381474554538727,0.2900911867618561,0.1172512173652648
0.43592236328125,-1.2273999452590942,-0.761900007724762,1.2976999282836914,-0.3671125471591949,0.187710165977478,0.1523497849702835
0.455775390625,-0.7425000071525574,-0.8769999742507935,0.7290999889373779,-0.2431243658065796,0.1000946313142776,0.1356993466615677
0.47562841796875,-0.4655999839305877,-0.7620999813079834,-0.0988999977707862,-0.1705186665058136,0.1529781073331833,0.1003564298152923
0.495480224609375,-0.3418000042438507,-0.6469999551773071,-0.3528999984264374,-0.1299223154783249,0.2649060785770416,0.0465653836727142
0.515333251953125,-0.5410999655723572,-0.5566999912261963,0.0687999948859214,-0.0716806724667549,0.3604628443717956,0.0035604715812951
0.535184814453125,-0.915299952030182,-0.5151000022888184,0.3883000016212463,0.0379085503518581,0.3711093664169311,-0.0358141548931598
0.555039306640625,-1.380199909210205,-0.2970999777317047,0.2308999896049499,0.127827912569046,0.3278600871562958,-0.0171391330659389
0.57489111328125,-1.445599913597107,-0.2836999893188476,-0.3276000022888183,0.1466774642467498,0.2890090644359588,0.0656941905617713
0.594744140625,-1.0429999828338623,-0.3632999956607818,-0.976099967956543,0.0697782635688781,0.2905100584030151,0.1086816489696502
0.614595703125,-1.070199966430664,-0.3331999778747558,-1.1275999546051023,-0.1063429117202758,0.2143613398075103,0.1450543105602264
0.63444873046875,-0.53329998254776,-0.5232999920845032,-1.0477999448776243,-0.3037745654582977,0.0339815616607666,0.1653350442647934
0.654302001953125,-0.0883999988436698,-0.8060999512672424,-0.9680999517440796,-0.5082398653030396,-0.0949459075927734,0.1275661140680313
0.674155029296875,0.1263999938964843,-0.8021999597549438,-0.3181999921798706,-0.6060132384300232,-0.1628741323947906,0.0487470440566539
0.69400830078125,0.2427999973297119,-0.5889999866485596,-0.1081999987363815,-0.5808455944061279,-0.097319558262825,0.0156730562448501
0.713859619140625,0.5155999660491943,-0.494299978017807,0.0762000009417533,-0.5048364996910095,0.0025132740847766,-0.0256388857960701
0.733713134765625,0.3253999948501587,-0.3518999814987182,0.1020999997854232,-0.4691270589828491,0.0262672044336795,-0.1220857799053192
0.753566162109375,-0.0618999972939491,-0.1652999967336654,-0.2009999901056289,-0.4693364799022674,-0.0282917879521846,-0.1982344985008239
0.77341748046875,-0.5907999873161316,0.0199999995529651,-0.6697999835014343,-0.5292885303497314,-0.0247487686574459,-0.1795943826436996
0.793270751953125,-0.4328999817371368,-0.0938999950885772,-0.3957999944686889,-0.5991191864013672,-0.0400727577507495,-0.1381078958511352
0.8131240234375,-0.1729999929666519,-0.3328999876976013,0.1821999996900558,-0.6257877945899963,-0.12093386054039,-0.1617047488689422
0.8329755859375,-0.1242999956011772,-0.449099987745285,0.5008999705314636,-0.5171410441398621,-0.2097362130880355,-0.2301391214132309
0.85282861328125,-0.3940999805927276,-0.2326999902725219,-0.5392999649047852,-0.4464552104473114,-0.2039068192243576,-0.2373473197221756
0.872681640625,-0.2723999917507171,-0.1996999979019165,-1.2802000045776367,-0.5247681736946106,-0.1613033264875412,-0.183032676577568
0.892533203125,0.0778999999165535,-0.4088999927043915,-0.6883999705314636,-0.5999743938446045,-0.1217192634940147,-0.169925257563591
0.912386474609375,0.2070999890565872,-0.397599995136261,-0.2146999984979629,-0.5021137595176697,-0.0928340628743171,-0.1777966916561126
0.932238037109375,0.4074999988079071,-0.287200003862381,-0.324099987745285,-0.351474404335022,-0.0738448798656463,-0.1823869049549102
0.952091064453125,0.237199991941452,-0.0407999977469444,-1.073799967765808,-0.3088534772396087,-0.1296954154968261,-0.1522974371910095
0.971944091796875,0.2405999898910522,0.3786999881267547,-2.332900047302246,-0.456735223531723,-0.2091078907251358,-0.0308225136250257
0.99179736328125,0.7818999886512756,0.3590999841690063,-2.7742998600006104,-0.7620282173156738,-0.2867226898670196,0.0967959612607956
1.01164892578125,1.4875999689102173,0.0603000000119209,-1.587799906730652,-0.993074893951416,-0.3494672775268554,0.1672548949718475
1.031501953125,1.7536998987197876,-0.1264999955892563,-0.5830000042915344,-0.9622174501419068,-0.3593807518482208,0.1493303775787353
1.05135498046875,2.375,-0.3364999890327453,0.788100004196167,-0.7593578696250916,-0.3744429349899292,0.0900240838527679
1.071206787109375,2.681299924850464,-0.1705999970436096,2.086699962615967,-0.4258603453636169,-0.2974913716316223,-0.0456403605639934
1.091059814453125,2.9140000343322754,0.0521999970078468,2.481099843978882,-0.0125663708895444,-0.2838603556156158,-0.2276432961225509
1.110912841796875,2.544100046157837,0.7060999870300293,1.636699914932251,0.2816961407661438,-0.4377460181713104,-0.3867300450801849
1.130765869140625,2.1686999797821045,1.7588999271392822,1.3632999658584597,0.4009544849395752,-0.5928010940551758,-0.4717450439929962
1.15061767578125,1.6507999897003174,2.2956998348236084,2.954900026321411,0.5423959493637085,-0.608421802520752,-0.48509681224823
1.170470703125,0.8610999584197998,3.1771998405456543,5.8202996253967285,0.9062447547912598,-0.4610112607479095,-0.3985808491706848
1.19032373046875,1.3938000202178955,3.5117998123168945,7.534899711608887,1.2782965898513794,-0.4616221189498901,-0.4204672574996948
1.21017529296875,0.3075000047683716,4.61870002746582,8.480199813842773,1.236234188079834,-0.9548521637916564,-0.4368908107280731
1.2300283203125,-1.4361000061035156,5.0177998542785645,9.832900047302246,1.0278069972991943,-1.524475336074829,-0.1727003306150436
1.249880126953125,-1.1060999631881714,4.807399749755859,13.139299392700195,1.1259119510650637,-0.7843509912490845,0.0445408038794994
1.269733154296875,-2.54289984703064,4.138599872589111,14.84779930114746,1.2818570137023926,0.1209862232208252,-0.0307876076549291
1.28958642578125,-5.5278000831604,4.117199897766113,12.434399604797363,0.841789722442627,-0.3063750863075256,0.1178271770477294
1.309439453125,-5.1875,3.1910998821258545,7.31089973449707,-0.3885451853275299,-0.8846724629402161,0.5308418869972229
1.329291015625,-4.0055999755859375,1.511799931526184,2.7802000045776367,-1.9609646797180176,-0.1744631081819534,0.8413184881210327
1.349144287109375,-4.759500026702881,-1.5096999406814575,3.389299869537353,-3.2168686389923096,0.9361422657966614,1.3651267290115356
1.368997314453125,-4.5441999435424805,-5.072799682617188,5.695199966430664,-3.874910116195679,1.1525455713272097,1.813048005104065
1.388848876953125,-1.529099941253662,-7.479399681091309,11.818399429321287,-3.114173412322998,1.2222191095352173,1.9798141717910769
1.4087021484375,3.661799907684326,-6.986199855804443,11.680699348449709,-0.9977349042892456,0.8198858499526978,1.4046235084533691
1.42855517578125,6.013799667358398,-4.816099643707275,2.7074999809265137,0.5956634283065796,0.3257308006286621,0.4162435829639435
1.448408203125,5.5903000831604,-3.2243998050689697,-4.65749979019165,1.2084310054779053,-0.273004412651062,-0.5177868008613586
1.468259765625,3.4310998916625977,-1.6430000066757202,-8.166199684143066,1.4771244525909424,-0.5443158149719238,-1.2030205726623535
1.488111328125,0.7116000056266785,-0.8646000027656555,-9.20419979095459,1.7741620540618896,-0.4312883019447326,-1.4361093044281006
1.507966064453125,-0.0348999984562397,-0.5848999619483948,-9.004199981689453,2.342301607131958,0.179734006524086,-1.4102435111999512
1.527817626953125,-1.723099946975708,-0.1968999952077865,-11.05299949645996,2.6408228874206543,0.5808804631233215,-1.1994949579238892
1.547670654296875,-3.2082998752593994,-0.0966999977827072,-15.099199295043944,1.802279353141785,-0.0895004868507385,-0.6097133159637451
1.567522216796875,-1.893799901008606,-0.3707000017166137,-13.91029930114746,0.4446924328804016,-0.9823585748672484,-0.0529183819890022
1.58737548828125,-0.2322999984025955,-1.1404999494552612,-11.302800178527832,-0.3273539543151855,-1.283061385154724,0.1849001795053482
1.607228515625,0.6057999730110168,-1.7523999214172363,-7.929800033569336,-0.2482381761074066,-0.7320957779884338,0.2822372019290924
1.62708154296875,1.1035000085830688,-2.259899854660034,-5.895599842071533,0.4472580850124359,0.0707032904028892,0.2702118754386902
1.646934814453125,0.9506999850273132,-2.48799991607666,-6.759999752044678,1.121862769126892,0.4526162445545196,0.1862615346908569
1.666786376953125,1.118299961090088,-2.727299928665161,-9.281899452209473,1.1887089014053345,0.3152588307857513,0.0869348496198654
1.686639404296875,0.7139999866485596,-2.685099840164185,-10.028800010681152,0.926874577999115,0.003735004691407,-0.0461639575660228
1.706492431640625,0.5612999796867371,-2.809000015258789,-9.39050006866455,0.7158119082450867,-0.1217890754342079,-0.1096590384840965
1.726343994140625,0.4180999994277954,-2.9027998447418213,-8.368499755859375,0.8476017117500305,0.0508239865303039,-0.1970651298761367
1.746197265625,-0.3735999763011932,-2.775899887084961,-8.161299705505371,1.1725471019744873,0.3637615144252777,-0.2255314439535141
1.766050537109375,-1.0850999355316162,-2.8063998222351074,-8.706399917602539,1.4210644960403442,0.6397329568862915,-0.115662969648838
1.785903564453125,-1.1447999477386477,-2.958400011062622,-9.51319980621338,1.4298958778381348,0.741363525390625,-0.0456403605639934
1.805755126953125,-1.4955999851226809,-3.0894999504089355,-9.898399353027344,1.0228153467178345,0.5458168387413025,0.0596379004418849
1.8256083984375,-1.2826999425888062,-3.1057000160217285,-6.620499610900879,0.6810274720191956,0.4818679392337799,0.1569400131702423
1.84546142578125,-0.8348999619483948,-2.236000061035156,-2.61169981956482,0.5064072608947754,0.4104490876197815,0.2568950057029724
1.865311279296875,2.061800003051758,-0.4720000028610229,3.2177000045776367,0.677885890007019,-0.0884009227156639,0.1822647303342819
1.885164306640625,4.139400005340576,3.497900009155273,1.8628000020980835,0.7510675191879272,-1.053829789161682,-0.0263719242066144
1.905019287109375,5.0055999755859375,7.072999954223633,0.5630999803543091,-0.5456946492195129,-0.9007295370101928,0.2675065994262695
1.924870849609375,5.665499687194824,6.206500053405762,4.566100120544434,-2.202221632003784,-0.4113217294216156,0.2158623188734054
1.944723876953125,1.1590999364852903,4.792599678039551,15.386399269104004,-3.275389671325684,0.3729594051837921,0.4022809267044067
1.964576904296875,3.4398000240325928,0.9967999458312988,25.72369956970215,-2.7610411643981934,0.4225965738296509,0.2274862080812454
1.984428466796875,3.0789999961853027,1.8756999969482424,28.30389976501465,-0.4293510019779205,-0.0242949835956096,-0.9165771007537842
2.00428173828125,-1.8284999132156368,5.329899787902832,12.382399559020996,1.2534605264663696,0.0557283610105514,-1.5990357398986816
2.02413330078125,-7.335399627685547,8.163700103759766,-2.5878000259399414,0.5354844927787781,-0.0392350032925605,-1.0896962881088257
2.043986328125,-6.127899646759033,6.994499683380127,-5.996399879455566,-1.1567692756652832,-0.1882686614990234,0.1066047102212905
2.06383935546875,-1.902999997138977,2.4809000492095947,-3.653499841690064,-2.264145851135254,-0.3019070625305176,0.7144854068756104
2.083692626953125,1.600499987602234,-0.7031999826431274,0.3628000020980835,-2.4294633865356445,-0.3047519326210022,0.665232241153717
2.103544189453125,2.482599973678589,-1.2698999643325806,2.04830002784729,-1.675481200218201,-0.0784176439046859,0.3209311366081238
2.123397216796875,2.532999992370605,-0.7910999655723572,-0.3182999789714813,-0.7660773396492004,0.1152266338467598,0.0722915381193161
2.143250244140625,2.619999885559082,-0.526699960231781,-3.354199886322021,-0.3546334505081177,0.0708952769637107,-0.1257684230804443
2.16310205078125,2.312000036239624,-0.4111000001430511,-5.1006999015808105,-0.3038792610168457,-0.0844041258096695,-0.304664671421051
2.182955078125,2.184000015258789,-0.2930999994277954,-4.707499980926514,-0.1798736304044723,-0.1614604145288467,-0.5140692591667175
2.20280810546875,1.194599986076355,-0.3319000005722046,-2.2304999828338623,0.4747470021247864,-0.0240506362169981,-0.7383964657783508
2.22265966796875,-1.3306999206542969,0.6208999752998352,-2.8046000003814697,1.4700559377670288,0.2334028780460357,-0.8259421586990356
2.242512939453125,-3.5741000175476074,1.489300012588501,-6.492499828338623,1.8372732400894165,0.3728896081447601,-0.5653994083404541
2.262365966796875,-4.353399753570557,1.897599935531616,-6.193999767303467,1.4776655435562134,0.3499385118484497,-0.0646993517875671
2.28221923828125,-2.79289984703064,0.161200001835823,0.6022999882698059,1.3382835388183594,0.3403566479682922,0.2429847419261932
2.302070556640625,-0.7498999834060669,-0.448199987411499,8.370599746704102,2.032889604568481,0.0796917304396629,0.0383274294435977
2.321924072265625,-1.6484999656677246,2.669100046157837,7.723999977111816,2.285194396972656,0.359433114528656,-0.0726231485605239
2.341777099609375,-1.99809992313385,4.735799789428711,12.416999816894531,1.4567914009094238,1.2153774499893188,0.4607320129871368
2.361628662109375,-1.299399971961975,1.2015999555587769,23.57309913635254,0.936351716518402,1.0628706216812134,0.4939805269241333
2.381481689453125,-0.7825999855995178,0.4997999966144562,24.518199920654297,1.4616259336471558,-0.5639159083366394,-0.1033234894275665
2.4013349609375,-0.5306999683380127,4.390100002288818,12.696099281311035,1.1952189207077026,-1.435306429862976,-0.4142189919948578
2.4211865234375,-0.1096999943256378,8.409699440002441,5.237299919128418,0.4162610173225403,-0.6361899375915527,-0.1078962534666061
2.44103955078125,-0.9557999968528748,9.91510009765625,-0.974399983882904,-0.3788586258888244,1.3339028358459473,0.727645218372345
2.460892578125,-0.5611000061035156,5.415299892425537,-7.139499664306641,-2.015034914016724,2.1640162467956543,1.4331421852111816
2.480744140625,1.3665999174118042,-1.5113999843597412,-8.604000091552734,-4.519460201263428,0.579030454158783,1.5202690362930298
2.500597412109375,3.595399856567383,-5.232399940490723,-2.5844998359680176,-5.767946720123291,-1.2435994148254397,1.2085531949996948
2.520450439453125,5.510299682617188,-4.10099983215332,2.707399845123291,-4.644862174987793,-1.7350492477416992,0.6150016784667969
2.540302001953125,4.308499813079834,0.1753999888896942,2.3738999366760254,-2.0639564990997314,-0.7823438048362732,-0.0979304239153862
2.560155029296875,0.821899950504303,1.870000004768372,-1.268399953842163,0.2772455513477325,0.1428551971912384,-0.3763976991176605
2.58000830078125,-0.5866999626159668,1.3217999935150146,-7.186699867248535,1.4294246435165403,-0.0229685325175523,-0.3800454437732696
2.599861328125,-0.6434999704360962,0.6960999965667725,-11.949899673461914,1.3463295698165894,-0.3981445133686065,-0.2439795732498169
2.619712890625,0.2155999988317489,-0.2651999890804291,-11.616000175476074,0.6648133397102356,-0.9645910859107972,-0.2147278636693954
2.63956591796875,0.8574000000953674,-0.9080999493598938,-10.596799850463867,0.1390329301357269,-1.1725820302963257,-0.2648362517356872
2.659417724609375,-0.2250999957323074,-1.382099986076355,-8.665999412536621,0.1577603071928024,-0.3151017427444458,-0.2487792372703552
2.679270751953125,-0.2696000039577484,-1.722599983215332,-7.410099983215332,0.6626840829849243,0.7310137152671814,-0.1707630157470703
2.699123779296875,0.6297999620437622,-2.374599933624268,-7.875899791717529,1.0421186685562134,1.192827820777893,-0.2395115345716476
2.738828369140625,-0.2559999823570251,-2.5297999382019043,-8.896499633789062,0.1504124701023101,0.2195449620485305,-0.5678777694702148
2.758681640625,-1.455899953842163,-2.2874999046325684,-6.9776997566223145,0.0235793981701135,0.2232625186443328,-0.4044975042343139
2.77853466796875,-1.1908999681472778,-2.412099838256836,-6.103799819946289,0.2869495749473572,0.6132563352584839,-0.1133765876293182
2.79838623046875,-0.1092999950051307,-2.7821998596191406,-6.286399841308594,0.5110324025154114,0.7850316166877747,-0.0671777203679084
2.8182392578125,-0.5759999752044678,-2.4686999320983887,-6.35789966583252,0.5280842781066895,0.4965810775756836,-0.1563291400671005
2.8380927734375,-1.2989000082015991,-1.9808999300003047,-6.770400047302246,0.5220105051994324,-0.0537212342023849,-0.1524894088506698
2.857944091796875,-1.8805999755859373,-1.658199906349182,-7.204699993133545,0.5979498028755188,-0.2671051919460296,-0.0226718261837959
2.87779736328125,-1.9128999710083008,-1.5816999673843384,-6.996099948883057,0.6997897624969482,0.033684853464365,0.203365758061409
2.897650390625,-1.9567999839782717,-2.6793999671936035,-3.3595998287200928,0.7416427731513977,0.1907470375299453,0.3494847416877746
2.917503662109375,-0.1369999945163726,-2.849900007247925,1.6664999723434448,0.868161678314209,-0.2707180082798004,0.2835112810134887
2.937356689453125,0.5893999934196472,-2.041800022125244,5.954799652099609,1.0140362977981567,-1.0806729793548584,-0.06955137103796
2.957208251953125,2.305699825286865,1.615399956703186,9.509200096130373,1.4339799880981443,-1.4274001121520996,-0.2335948646068573
2.977061279296875,3.1277999877929688,5.490200042724609,4.45359992980957,1.3646904230117798,-1.273880958557129,-0.2567379176616668
2.9969130859375,3.2181999683380127,7.259899616241455,-0.8680999875068665,-0.196803331375122,-0.7543138265609741,-0.0284139607101678
3.01676611328125,0.0916999951004982,6.263099670410156,3.411099910736084,-1.939654231071472,0.0767072215676307,0.3711791634559631
3.036619140625,0.5085999965667725,2.764400005340576,15.243499755859377,-2.443775177001953,0.6091373562812805,0.9198583364486694
3.05647216796875,3.2468998432159424,-0.3726999759674072,17.912899017333984,-2.107170820236206,0.3632902801036834,0.5809851884841919
3.076323974609375,2.33899998664856,-0.1080999970436096,14.39799976348877,-1.6493360996246338,0.213523581624031,-0.0800058916211128
3.096177001953125,-0.4720999896526336,1.3320999145507812,8.068399429321289,-1.441886305809021,0.7877543568611145,-0.2561794221401214
3.116030029296875,0.4818999767303467,2.9003000259399414,3.7343997955322266,-1.5256272554397583,1.2668123245239258,-0.4631754755973816
3.135881591796875,-2.906100034713745,2.5249998569488525,-1.191100001335144,-1.899494171142578,1.3000259399414062,-0.6595599055290222
3.15573486328125,-2.566200017929077,2.5597000122070312,-1.4726999998092651,-2.180055856704712,0.7180110216140747,-0.3581764698028564
3.175587890625,-1.084999918937683,2.553400039672852,-2.2535998821258545,-2.011107921600342,0.1531875431537628,-0.0754505842924118
3.19544091796875,0.2496999949216842,1.6998000144958496,-2.1150999069213867,-1.5980234146118164,-0.1815665960311889,0.349013477563858
3.21529248046875,2.9563000202178955,0.3510999977588653,-0.2260999977588653,-0.5684188008308411,-0.1849874407052993,0.4449367821216583
3.235145751953125,3.9758999347686768,-0.3656999766826629,-1.661199927330017,0.7540695071220398,-0.1401499360799789,0.1166229024529457
3.2549990234375,2.7493999004364014,-0.2803999781608581,-6.376100063323975,1.2417320013046265,-0.6782698631286621,-0.2352529317140579
3.274850341796875,1.1941999197006226,-0.0142000000923872,-8.360099792480469,0.9917659163475036,-1.4264227151870728,-0.3267430961132049
3.294703369140625,1.004899978637695,-0.131300002336502,-6.671399593353272,0.8214741349220276,-1.7078396081924438,-0.3052580952644348
3.314554931640625,1.88949990272522,-0.755899965763092,-3.0297000408172607,1.301596760749817,-1.3345485925674438,-0.4827406108379364
3.334408203125,0.8716999888420105,-1.3005999326705933,-0.2615000009536743,2.15809965133667,-1.0223441123962402,-0.8025721907615662
3.354261474609375,-1.435099959373474,-1.0261999368667605,-1.226099967956543,2.659235954284668,-1.0555577278137207,-0.9336115121841432
3.374114501953125,-2.203699827194214,1.0332999229431152,-1.1861000061035156,2.351394891738892,-0.6859143972396851,-0.7489033341407776
3.393966064453125,-1.1531000137329102,2.1196000576019287,6.039000034332275,1.95251727104187,-0.5113465785980225,-0.4729143977165222
3.4138193359375,0.3841999769210815,3.1153998374938965,14.102299690246582,1.9601967334747317,-0.4185473918914795,-0.3782652020454407
3.43367236328125,2.937999963760376,4.0777997970581055,17.76599884033203,1.7069319486618042,-0.0264766439795494,-0.3694163858890533
3.45352392578125,4.653800010681152,4.4054999351501465,20.63109970092773,1.0390992164611816,1.0497456789016724,-0.6026098132133484
3.473376953125,-0.4379999935626983,5.754799842834473,26.82339859008789,0.4593008458614349,1.9460595846176147,-0.898076593875885
3.493230224609375,-5.29509973526001,7.757099628448486,22.609899520874023,0.5069657564163208,1.3875367641448977,-0.531156063079834
3.513083251953125,-4.307300090789795,9.416899681091309,8.113699913024902,-0.1557880938053131,0.4496317207813263,0.3135309517383575
3.532934814453125,1.6129000186920166,7.160599708557129,-6.4440999031066895,-1.6853073835372925,0.4302760064601898,0.9304001331329346
3.552787841796875,2.256799936294556,2.240799903869629,-8.467599868774414,-3.206117391586304,1.53602933883667,0.947242558002472
3.572639404296875,-0.7491999864578247,-2.129600048065185,-0.6277999877929688,-3.3683807849884038,1.796519756317139,0.9090372920036316
3.59249267578125,-0.6225999593734741,-3.5700998306274414,5.779599666595459,-1.8917973041534424,0.4021064043045044,0.8992809057235718
3.612345703125,1.021299958229065,-2.920399904251098,0.9783999919891356,0.2930582463741302,-0.7636513710021973,0.8076685667037964
3.632197265625,1.791700005531311,-2.90149998664856,-8.132100105285645,1.873122215270996,-0.4975061118602752,0.6849370002746582
3.65205029296875,2.2527999877929688,-3.3374998569488525,-14.909199714660645,2.231071710586548,-0.1722639948129654,0.3838502466678619
3.671903564453125,0.6592000126838684,-3.414799928665161,-18.17009925842285,1.5087324380874634,-0.2521651685237884,0.1882337629795074
3.691756591796875,-0.6451999545097351,-2.686199903488159,-17.017000198364258,0.3981445133686065,-0.601527750492096,0.2175901979207992
3.711608154296875,-0.722000002861023,-3.093600034713745,-14.340399742126465,-0.3657861053943634,-0.6848672032356262,0.4593532085418701
3.731461181640625,-0.40829998254776,-3.269399881362915,-11.485799789428713,-0.7440164089202881,-0.4041658937931061,0.5975483655929565
3.75131298828125,-0.4429999887943268,-3.509500026702881,-9.253399848937988,-0.925879716873169,-0.2184279561042785,0.6076887249946594
3.771166015625,-0.1872999966144561,-3.8997998237609854,-7.570299625396728,-1.0149264335632324,-0.1149124801158905,0.5098455548286438
3.79101904296875,0.5561000108718872,-3.8703999519348153,-4.899399757385254,-0.7744549512863159,0.0740194097161293,0.2595304548740387
3.8108720703125,0.2908999919891357,-3.466399908065796,-4.333099842071533,-0.2593908309936523,0.2962521910667419,-0.0364948362112045
3.830723876953125,-0.661899983882904,-2.760900020599365,-5.212899684906006,0.162298172712326,0.3991393446922302,-0.1808859258890152
3.850576904296875,-0.5974000096321106,-2.548499822616577,-6.827199935913086,0.3317347168922424,0.4376762211322784,-0.1963495463132858
3.87043017578125,-0.2698000073432922,-2.61299991607666,-6.647500038146973,0.3829252421855926,0.3789109885692596,-0.3137403726577759
3.890281494140625,-1.250999927520752,-2.118799924850464,-5.70829963684082,0.6707474589347839,0.3194301724433899,-0.338716059923172
3.910135009765625,-1.770699977874756,-2.05079984664917,-7.144299983978272,0.9339256882667542,0.097860611975193,-0.1725956052541732
3.929988037109375,-1.261799931526184,-2.0107998847961426,-8.306599617004395,0.9728989005088806,-0.1365894675254821,-0.0374198593199253
3.949841064453125,-0.9220999479293824,-2.280400037765503,-8.304800033569336,0.8453153371810913,-0.3436378836631775,0.0556760020554065
3.969692626953125,-0.2732999920845032,-2.31879997253418,-6.325699806213379,0.7029662728309631,-0.6054023504257202,0.0725707933306694
3.989545654296875,0.5027999877929688,-1.211899995803833,-3.1647000312805176,0.7879114151000977,-0.5511051416397095,0.070825457572937
4.00939892578125,2.563999891281128,0.4784999787807464,0.5934000015258789,0.6086835861206055,-0.4177969098091125,0.0186052098870277
4.02925048828125,3.898099899291992,3.3200998306274414,11.802800178527832,0.587442934513092,-0.4192455410957336,-0.0452738404273986
4.049103515625,2.412799835205078,6.204599857330322,16.618499755859375,1.19776713848114,-0.6718645095825195,-0.0528311170637607
4.06895654296875,2.3935999870300293,7.666100025177002,9.59340000152588,0.7795513272285461,-1.028540015220642,0.0918043181300163
4.088809814453125,1.055400013923645,7.4014997482299805,6.008800029754639,-0.6250373125076294,-0.4310614168643951,0.3964340984821319
4.108661376953125,3.0539000034332275,4.185800075531006,14.223999977111816,-1.2502491474151611,0.3691895008087158,0.6570292115211487
4.128514404296875,5.233799934387207,1.5992000102996826,16.81439971923828,-0.9114458560943604,0.4948008358478546,0.1873087286949157
4.148367431640625,2.5810999870300293,2.1994998455047607,12.950499534606934,-0.7199482917785645,0.3749141693115234,-0.3148050308227539
4.16821923828125,0.1694999933242797,2.3933000564575195,8.448999404907227,-0.614844560623169,0.3931877613067627,-0.374320775270462
4.188072265625,-0.8224999904632568,2.018899917602539,3.289999961853028,-0.6304129362106323,0.3041236102581024,-0.3131818771362304
4.20792529296875,-0.5702999830245972,1.2767000198364258,-1.807500004768372,-0.8884249329566956,-0.0226020142436027,-0.3021164834499359
4.22777685546875,-0.1639000028371811,0.9555999636650084,-5.404599666595459,-1.284317970275879,-0.221552088856697,-0.4098381996154785
4.247630126953125,-1.034600019454956,0.932799994945526,-6.4888997077941895,-1.572262406349182,-0.0797789990901947,-0.3119077980518341
4.267483154296875,-0.3762999773025512,0.1092000007629394,-6.705899715423584,-1.5608479976654053,0.1805892139673233,-0.0615228563547134
4.28733642578125,0.5992000102996826,-1.0139999389648438,-6.320499897003174,-1.4597409963607788,0.3555584847927093,-0.0731467455625534
4.307187744140625,0.9532999992370604,-1.35509991645813,-5.437999725341797,-1.1230844259262085,0.3511776924133301,-0.263195663690567
4.327041259765625,-0.411899983882904,-0.8198999762535095,-5.221099853515625,-0.5830795764923096,0.3419798016548157,-0.3552966713905334
4.346894287109375,-1.354300022125244,-0.5062000155448914,-6.039799690246582,-0.0834965482354164,0.3383495211601257,-0.2129825204610824
4.366745849609375,-0.2432999908924102,-0.7576000094413757,-6.996999740600586,0.1301143020391464,0.3554013967514038,-0.1250528395175933
4.386598876953125,0.4461999833583832,-1.1471999883651731,-5.357500076293945,0.2905798554420471,0.2247111350297927,-0.2732312977313995
4.4064521484375,-0.5412999987602234,-0.6172999739646912,-2.416399955749512,0.8054519891738892,0.1463633179664611,-0.4256508946418762
4.4263037109375,-2.772899866104126,0.1266999989748001,0.4864999949932098,1.6790591478347778,0.4650778770446777,-0.2702467739582062
4.44615673828125,-1.976599931716919,-0.4413999915122986,3.9194998741149902,2.4070184230804443,0.4177096486091614,-0.0110828410834074
4.466009765625,0.7010999917984009,0.4060999751091003,5.324199676513672,2.182342290878296,-0.3504621088504791,-0.2597573399543762
4.485861328125,-0.6243999600410461,4.664799690246582,11.073100090026855,1.8739426136016848,0.4449542462825775,-0.2077988982200622
4.505714599609375,0.0986000001430511,6.348499774932861,23.83759880065918,2.202570676803589,2.850716114044189,0.5354670286178589
4.525567626953125,-3.0715999603271484,3.593799829483032,32.76839828491211,2.4520480632781982,2.5177769660949707,0.2134363204240799
4.545420654296875,-10.37909984588623,6.883800029754639,28.971698760986328,2.270219564437866,0.0635997951030731,0.2424960434436798
4.565272216796875,-3.710899829864502,7.409999847412109,16.605798721313477,2.1519908905029297,-0.1191361770033836,0.4540823101997375
4.58512548828125,0.6672999858856201,8.491299629211426,1.4677000045776367,1.673683524131775,0.9395630955696106,0.0838281661272049
4.604978515625,0.1375000029802322,8.507999420166016,-7.617599964141846,-0.0748920813202858,1.4157936573028564,0.1173035800457
4.624830078125,2.150399923324585,3.652999877929688,-7.507400035858154,-2.4173858165740967,0.7023728489875793,0.4012337327003479
4.644681640625,4.117499828338623,-1.508999943733215,1.8501999378204343,-3.373983144760132,-0.7780154347419739,0.5680522918701172
4.664536376953125,7.480700016021728,-4.261099815368652,4.104300022125244,-2.12385630607605,-1.6849234104156494,0.3353475630283355
4.684389404296875,7.477999687194824,-5.246099948883057,3.845599889755249,0.2014808058738708,-1.2447688579559326,-0.3543716371059418
4.704240966796875,2.321499824523926,-3.6785998344421382,-5.597399711608887,2.012835741043091,-1.3432053327560425,-0.6355441808700562
4.724093994140625,-1.4617999792099,-2.8613998889923096,-15.332499504089355,1.830187201499939,-1.5847065448760986,-0.1838006228208542
4.74394580078125,-0.2202999889850616,-3.0996999740600586,-17.563499450683594,0.2738945186138153,-2.201558351516724,0.1709899008274078
4.763798828125,0.5810999870300293,-4.823800086975098,-13.26569938659668,-1.002831220626831,-2.0728228092193604,0.3499385118484497
4.78365185546875,1.700899958610535,-6.638999938964844,-5.963799953460693,-0.8995950818061829,-1.4264750480651855,0.2158972322940826
4.80350341796875,0.4815999865531921,-6.783599853515625,-2.8831000328063965,0.196838229894638,-0.6584603786468506,-0.0821526497602462
4.8233564453125,-1.3722000122070312,-6.210999965667725,-4.724999904632568,1.2734620571136477,0.078103482723236,-0.1986010074615478
4.8432099609375,-1.4498000144958496,-5.580399990081787,-7.345499992370605,1.837290644645691,0.6494370102882385,-0.1396263390779495
4.863061279296875,-1.268899917602539,-5.412799835205078,-10.709799766540527,1.5226078033447266,0.600236177444458,-0.2013411819934845
4.88291455078125,-1.767699956893921,-5.286200046539307,-12.200900077819824,0.5717524290084839,-0.014433872886002,-0.2874382734298706
4.902765869140625,-1.9072999954223635,-5.296099662780762,-10.315499305725098,-0.233106181025505,-0.4847303032875061,-0.2674019038677215
4.922619384765625,-2.1059000492095947,-5.70359992980957,-8.518400192260742,-0.4081976115703583,-0.4176223874092102,-0.2330363541841507
4.942472412109375,-2.6994998455047607,-5.032700061798096,-7.368000030517578,-0.0421671532094478,0.2094046026468277,-0.0351160243153572
4.962325439453125,-1.961899995803833,-5.398299694061279,-7.543599605560303,0.3712664246559143,0.7104188203811646,0.097145028412342
4.982178466796875,-1.3078999519348145,-5.765399932861328,-8.430299758911133,0.4253891110420227,0.4633150994777679,-0.0397062413394451
5.0020302734375,-1.816699981689453,-5.217700004577637,-8.538299560546875,0.2332632541656494,-0.0611039772629737,-0.2282192558050155
5.02188330078125,-2.6552999019622803,-3.8564000129699703,-8.276800155639648,0.0784525498747825,-0.1980948746204376,-0.193940982222557
5.04173486328125,-2.8232998847961426,-2.0085999965667725,-6.755199909210205,-0.0628493055701255,0.1944994926452636,-0.0203156322240829
5.061587890625,-0.6809999942779541,-1.2142000198364258,1.482699990272522,-0.0452563874423503,0.516076385974884,0.0456054545938968
5.081441162109375,2.957399845123291,2.118299961090088,9.875800132751465,0.9941046237945556,-0.4543441236019134,-0.3824365437030792
5.101294189453125,2.4649999141693115,9.11180019378662,1.7828999757766724,1.0575299263000488,-0.7169288992881775,-0.3291341960430145
5.121145751953125,2.9368999004364014,12.243199348449709,1.1776000261306765,-0.7660250067710876,0.0209439508616924,0.4921304881572723
5.140998779296875,2.353600025177002,8.702799797058105,9.269299507141112,-2.7596447467803955,0.3651403188705444,1.1246029138565063
5.16085205078125,3.7904999256134033,3.392199993133545,22.056699752807617,-3.3085856437683105,0.2981720566749573,1.1231019496917725
5.18070361328125,6.161599636077881,1.2440999746322632,28.07219886779785,-1.916668176651001,-0.2639985084533691,0.1343379914760589
5.200556640625,0.9835999608039856,4.787600040435791,19.46259880065918,0.2686236202716827,-0.1966986060142517,-0.9132609963417052
5.22040966796875,-5.327399730682373,8.43179988861084,3.0040998458862305,1.3855819702148438,1.0597115755081177,-0.7043450474739075
5.24026123046875,-5.266599655151367,7.307199954986572,-7.537499904632568,0.2605951130390167,1.6043415069580078,-0.0071383966132998
5.260114501953125,-3.831300020217896,3.995499849319458,-7.4691996574401855,-1.7809339761734009,0.8598189949989319,0.3162361979484558
5.279967529296875,-1.806899905204773,0.521399974822998,-4.043600082397461,-2.9588043689727783,-0.080058254301548,0.5017123222351074
5.299820556640625,0.0406999997794628,-2.3717000484466557,-2.968899965286255,-3.273958444595337,-0.3596599996089935,0.5694311261177063
5.319672119140625,0.8276000022888184,-3.799299955368042,-1.459399938583374,-2.7990543842315674,-0.1739744246006012,0.5042256116867065
5.339525390625,0.736299991607666,-4.145199775695801,-1.0235999822616575,-1.8623361587524412,0.2058615833520889,0.363482266664505
5.359378662109375,1.1297999620437622,-4.054100036621094,-1.853399991989136,-0.8390845060348511,0.3632379174232483,0.1949881762266159
5.37922998046875,0.8863999843597412,-3.745299816131592,-4.041199684143066,-0.1199215725064277,0.1834864616394043,0.0033859387040138
5.399083251953125,0.0092000002041459,-2.7610998153686523,-6.67579984664917,0.2234021425247192,0.1239183768630027,-0.1469916254281997
5.4189365234375,-0.7256999611854553,-1.980699896812439,-5.313699722290039,0.4330336451530456,0.2404191046953201,-0.1654397547245025
5.43878955078125,-0.8294000029563904,-1.3087999820709229,-2.510699987411499,0.9739984273910522,0.0756949260830879,-0.1276010274887085
5.45864111328125,-0.2303999960422516,-0.092299997806549,-4.917099952697754,1.2780697345733645,-0.4236437678337097,-0.0681900158524513
5.478494140625,0.9871999621391296,2.558199882507324,-6.016599655151367,0.7767587900161743,-0.6613052487373352,0.016214108094573
5.498345703125,2.312999963760376,3.1178998947143555,3.621699810028076,0.7034375071525574,-0.6247231364250183,0.0217642560601234
5.518198974609375,1.3804999589920044,3.3489999771118164,11.670599937438965,1.9373503923416135,-1.0728888511657717,0.0572991594672203
5.538052001953125,3.4621999263763428,3.382499933242798,8.61870002746582,2.581376791000366,-1.564513087272644,0.1867153197526931
5.557905029296875,4.987299919128418,4.700599670410156,8.712299346923828,2.210686445236206,-1.3293824195861816,-0.0423765927553176
5.577756591796875,2.752699851989746,6.493199825286865,13.25369930267334,1.958730697631836,0.2350958436727523,0.035046212375164
5.59760986328125,0.4361999928951263,4.6921000480651855,20.282798767089844,1.7280853986740112,1.4058277606964111,0.1008451208472251
5.61746142578125,-2.500499963760376,3.8600997924804688,25.00169944763184,1.3915510177612305,-0.0407883450388908,0.0516791976988315
5.637314453125,2.0276999473571777,4.471399784088135,18.902000427246094,1.2232489585876465,-1.992572546005249,-0.3552966713905334
5.65716748046875,3.642099857330322,8.899700164794922,8.9621000289917,0.9675232768058776,-1.5731176137924194,-0.9228777289390564
5.677020751953125,1.325899958610535,10.854700088500977,2.256999969482422,0.7049036026000977,0.8730311393737793,-0.5190609097480774
5.696873779296875,1.9928998947143557,7.15779972076416,-3.2396998405456543,-0.6420717239379883,1.4590429067611694,-0.1148601174354553
5.716725341796875,1.6996999979019165,1.1483999490737915,-3.922199964523315,-2.7948830127716064,-0.1925272643566131,-0.0149923786520957
5.736578369140625,2.3157999515533447,-3.5013999938964844,1.908699989318848,-3.401681661605835,-1.7425891160964966,-0.2051285505294799
5.756431640625,0.2134999930858612,-3.2997000217437744,1.158900022506714,-1.804792642593384,-1.0147693157196045,-0.4861789047718048
5.776283203125,-1.5895999670028689,-2.9398000240325928,-3.1150999069213867,0.1529257446527481,0.3784397542476654,-0.5167222023010254
5.79613623046875,-1.5006999969482422,-3.353799819946289,-8.43809986114502,1.0248572826385498,0.24186772108078,-0.7358307838439941
5.81598779296875,-2.7398998737335205,-3.3755998611450195,-12.289299964904783,1.0159910917282104,-0.3118903338909149,-0.7649254202842712
5.835841064453125,-3.14769983291626,-3.433300018310547,-12.200399398803713,0.7782248854637146,-0.7680844664573669,-0.6251420378684998
5.855694091796875,-3.8882999420166016,-3.621999979019165,-11.353099822998049,0.524192214012146,-0.966266632080078,-0.2819404900074005
5.875545654296875,-3.417099952697754,-4.611499786376953,-9.687399864196776,0.4906469583511352,-0.7914893627166748,0.1730668544769287
5.895398681640625,-1.9977999925613403,-5.7577996253967285,-8.48759937286377,0.7008892893791199,-0.3306875228881836,0.3526961207389831
5.915252197265625,-1.1855000257492063,-6.225899696350098,-8.96619987487793,0.972322940826416,0.025743605569005,0.1737126260995865
5.935105224609375,-1.9443999528884888,-5.55649995803833,-9.878299713134766,0.9781872034072876,0.4113217294216156,-0.0078016216866672
5.954958251953125,-3.6713998317718506,-4.7846999168396,-10.485799789428713,0.8086808323860168,0.5004033446311951,0.1476723104715347
5.974809814453125,-2.9300999641418457,-5.253900051116943,-10.13029956817627,0.4434707164764404,0.3128502666950226,0.4648684561252594
5.9946611328125,-1.2538999319076538,-6.193299770355225,-8.581099510192871,0.2452362179756164,0.1506044566631317,0.46547931432724
6.0145146484375,-0.8007000088691711,-6.600499629974365,-8.146699905395508,0.2383770644664764,0.0696037337183952,0.2102947235107422
6.03436767578125,-2.274199962615967,-6.072999954223633,-9.5246000289917,0.0547160729765892,0.0095120444893836,0.0568104684352874
6.05421923828125,-2.543799877166748,-5.599899768829346,-9.557700157165527,-0.36166712641716,-0.0059341192245483,0.1173733919858932
6.07407373046875,-1.1848000288009644,-5.490099906921387,-7.351399898529053,-0.5473352670669556,0.0077492618001997,-0.021362829953432
6.093925537109375,-1.9068999290466309,-4.746699810028076,-4.557199954986572,-0.2874906361103058,0.0215722694993019,-0.3759613633155823
6.113778564453125,-3.176800012588501,-3.0358998775482178,-1.1466000080108645,0.2983814775943756,0.1578475832939148,-0.5389053225517273
6.133630126953125,-3.7202999591827393,0.1057999953627586,-0.0502000004053115,1.1947650909423828,0.0803025960922241,-0.3805865049362182
6.153483154296875,-0.281499981880188,4.150000095367432,-3.724900007247925,1.210560321807861,0.2344500720500946,0.2443635463714599
6.17333642578125,4.248199939727783,6.555399894714356,-0.7580999732017517,0.339885413646698,0.723020076751709,0.7772300243377686
6.19318798828125,6.132599830627441,7.3867998123168945,8.136699676513672,-0.1822472810745239,0.6755645871162415,0.7118325233459473
6.213041015625,1.6627999544143677,10.23859977722168,10.274499893188477,-0.1305855363607406,0.4228234589099884,0.6532767415046692
6.23289404296875,-2.082900047302246,11.011199951171877,6.757499694824219,-1.3700311183929443,-0.0593062862753868,1.6294742822647097
6.252747314453125,2.1664998531341557,6.567699909210205,14.754999160766602,-2.2634477615356445,-0.3931179642677307,2.16275954246521
6.272598876953125,6.110699653625488,5.6250996589660645,20.404199600219727,-0.8925963044166565,0.017523106187582,1.5129735469818115
6.292451904296875,3.5802998542785645,6.154399871826172,12.254300117492676,1.057477593421936,1.4891324043273926,0.7215889096260071
6.312304931640625,-0.6385999917984009,5.379499912261963,0.6997999548912048,1.1445869207382202,2.31673264503479,0.2031563222408294
6.332156494140625,-4.230899810791016,3.049499988555908,-3.644299983978272,-0.4933522045612335,1.428621768951416,0.3040014505386352
6.352009765625,-2.310099840164185,-0.1229999959468841,-1.3458999395370483,-1.679373264312744,0.5138947367668152,0.5910906791687012
6.37186279296875,1.3346999883651731,-3.059299945831299,3.1910998821258545,-1.4393905401229858,0.5477017760276794,0.5067214369773865
6.39171435546875,2.478899955749512,-3.8708999156951904,3.415599822998047,-0.2011841088533401,1.067757487297058,0.0216944422572851
6.4115673828125,1.768399953842163,-3.914599895477295,-1.608199954032898,0.449230283498764,1.1243411302566528,-0.3065321743488312
6.4314208984375,0.9996999502182008,-3.684299945831299,-4.7846999168396,0.1253844499588012,0.7121641635894775,-0.3747920095920563
6.451272216796875,1.1762999296188354,-3.7704999446868896,-3.910699844360352,-0.2676811516284942,0.2893756031990051,-0.3553839325904846
6.47112548828125,0.9545999765396118,-3.669899940490722,-1.291100025177002,-0.1381428092718124,0.0932529419660568,-0.3417529165744781
6.490978515625,1.7663999795913696,-2.6689000129699707,0.2739999890327453,0.5943195223808289,-0.0326725617051124,-0.4283038079738617
6.510831787109375,1.4857999086380005,-0.9517999887466432,-3.671799898147583,0.9410117268562316,-0.1373050510883331,-0.5072275996208191
6.530683349609375,0.6173999905586243,1.51010000705719,-5.23799991607666,0.6491577625274658,-0.0312239397317171,-0.4076041877269745
6.550536376953125,0.4649999737739563,2.9256999492645264,-2.6828999519348145,0.3373721539974212,0.4569097459316253,-0.0512603186070919
6.570389404296875,-1.2381999492645264,3.1129000186920166,1.3877999782562256,0.4832991361618042,1.1418817043304443,0.5296027064323425
6.59024267578125,-0.8750999569892883,1.837899923324585,5.186399936676025,0.8555952906608582,1.6897056102752686,1.0092191696166992
6.61009423828125,-0.1393000036478042,0.6581000089645386,7.016199588775635,0.9633345007896424,1.271297812461853,0.9762673377990724
6.629947265625,1.691499948501587,1.479699969291687,7.8053998947143555,0.8873254060745239,0.2921681106090545,0.752865195274353
6.64980029296875,2.763799905776977,1.1682000160217283,10.05009937286377,0.7364416718482971,-0.7053399085998535,0.4512548744678497
6.669652099609375,1.7649999856948853,2.453199863433838,12.711999893188477,1.4644185304641724,-1.26047682762146,-0.1444609016180038
6.689505126953125,0.011799999512732,4.515999794006348,9.502999305725098,2.392916202545166,-0.8544085025787354,-0.2899689972400665
6.709358154296875,1.82669997215271,5.186299800872803,8.347999572753906,2.547674655914306,-0.3263241946697235,-0.3948458433151245
6.729209716796875,2.612799882888794,7.132099628448486,7.325399875640869,2.3310792446136475,-0.6823015809059143,-0.7065267562866211
6.74906298828125,1.9542999267578125,8.102499961853027,5.402199745178223,1.7778971195220947,-0.4641354084014892,-0.8175820112228394
6.76891455078125,-0.2784999907016754,7.689499855041504,4.461299896240234,1.351897120475769,0.1879719644784927,-0.626817524433136
6.78876904296875,-7.537600040435791,5.342199802398682,8.726900100708008,0.9579414129257202,-0.3535164296627044,-0.309743583202362
6.808619140625,-0.0447000004351139,1.257200002670288,-2.0434999465942383,-0.1051909923553466,-0.9917659163475036,0.0437030456960201
6.8284736328125,0.9900999665260316,-2.641700029373169,-2.327999830245972,-0.2773677110671997,0.2619739174842834,-0.1995784044265747
6.8483271484375,0.3854999840259552,-5.588900089263916,-3.999699831008911,-0.1754928529262542,0.2509259879589081,-0.4141317307949066
6.868178466796875,-0.8059999942779541,-6.637399673461914,-6.43019962310791,-0.5437049865722656,-0.5757841467857361,-0.4833340346813202
6.888030029296875,-1.063599944114685,-7.197299957275391,-7.38129997253418,-0.6423684358596802,-0.8813912868499756,-0.2929709553718567
6.907884765625,-0.8119999766349792,-7.125,-7.598699569702148,-0.1974141895771026,-0.2624277174472809,-0.1443736404180526
6.927736328125,-0.7473999857902527,-6.540899753570557,-8.312399864196777,0.1311789453029632,0.3002489805221557,-0.1570970863103866
6.947589599609375,-1.2150999307632446,-6.451200008392334,-8.285099983215332,0.0418006367981433,0.3851941525936126,-0.202231302857399
6.967442626953125,-1.311900019645691,-6.477200031280518,-7.750999927520752,-0.1490162163972854,0.0865159705281257,-0.1664869636297226
6.987294189453125,-1.13919997215271,-6.546599864959717,-7.027599811553955,-0.3072477579116821,-0.2627767622470855,-0.0274714827537536
7.0071474609375,-0.6110000014305115,-6.849499702453613,-6.727999687194824,-0.2869844734668731,-0.2463706731796264,0.1141096279025077
7.02700048828125,-0.0522999987006187,-7.056299686431885,-5.964200019836426,-0.1432217210531234,-0.0923104658722877,0.1989500820636749
7.046853515625,-0.0071999998763203,-7.005899906158447,-5.573400020599365,-0.0346447862684726,0.0584510751068592,0.2094569653272628
7.066703369140625,0.1772999912500381,-7.020099639892578,-5.627500057220459,-0.018675023689866,0.097878061234951,0.2279749065637588
7.086558349609375,0.5593999624252319,-6.9182000160217285,-5.718999862670898,-0.0369311682879924,0.0662701502442359,0.1959655731916427
7.106411376953125,0.4614000022411346,-6.2941999435424805,-5.538300037384033,0.1188220158219337,0.3199886679649353,0.0907745733857154
7.126262939453125,-0.3817999958992004,-5.083699703216553,-5.709499835968018,0.2374694943428039,0.5209633111953735,-0.0278205480426549
7.146114501953125,-1.4265999794006348,-2.810999870300293,-4.991399765014648,0.2038719058036804,0.4491081237792969,-0.038065630942583
7.16596923828125,-0.6261999607086182,-0.1414999961853027,-2.825599908828736,-0.1831548511981964,-0.2756572961807251,0.0063879052177071
7.185822265625,0.8364999890327454,1.8828999996185305,0.306799978017807,-0.5509480834007263,-0.5746147632598877,0.0932703912258148
7.205673828125,1.3834999799728394,3.9671998023986816,7.556099891662598,0.0522377043962478,-0.1835737228393554,0.1965415328741073
7.22552685546875,0.8695999979972839,7.128799915313721,5.162299633026123,1.0081720352172852,0.4256857931613922,0.3825063705444336
7.245380126953125,0.017400000244379,8.154199600219727,-4.353799819946289,-0.2275734841823578,1.173821210861206,0.459684818983078
7.265231689453125,-0.2481999993324279,5.459699630737305,-0.1269000023603439,-2.6177494525909424,0.6799977421760559,0.5368283987045288
7.285084716796875,0.2874999940395355,3.130100011825561,11.022899627685549,-3.3390591144561768,0.1788264364004135,0.3061482012271881
7.304937744140625,-0.4630999863147735,4.033899784088135,18.42300033569336,-1.9627972841262815,0.3071953952312469,0.11149163544178
7.324789306640625,-1.941100001335144,6.41949987411499,12.791699409484863,-0.4558799862861633,0.1295557916164398,0.0124092912301421
7.344642578125,-1.2360999584197998,5.597300052642822,3.125200033187866,-0.3937811851501465,-0.1863138973712921,-0.0245218761265277
7.364494140625,0.6207999587059021,2.9121999740600586,0.5485999584197998,-1.0726968050003052,-0.317806988954544,-0.2188468277454376
7.38434716796875,1.0282999277114868,0.7353999614715576,3.3066999912261963,-1.176386833190918,-0.0836536288261413,-0.3707428276538849
7.404200439453125,0.4199000000953674,-0.1476999968290329,4.672699928283691,-0.5858546495437622,0.2059837579727172,-0.4709596335887909
7.4240537109375,-0.170999988913536,0.0138999996706843,2.194000005722046,0.1474628746509552,0.2871241271495819,-0.4124387502670288
7.4439052734375,0.1955999881029129,-0.559499979019165,-1.1342999935150146,0.4441688358783722,0.2001194506883621,-0.2914525270462036
7.46375830078125,0.9860000014305116,-1.327199935913086,-3.281399965286255,0.2766870558261871,0.0493579097092151,-0.3024480938911438
7.483611328125,-0.0309999994933605,-1.1455999612808228,-2.44599986076355,0.0897273793816566,-0.0623606145381927,-0.3215594589710235
7.503463134765625,-0.308599978685379,-1.4337999820709229,-1.455299973487854,0.1780410408973693,-0.0613832287490367,-0.2154085338115692
7.523316162109375,-0.2055999934673309,-1.6577999591827393,-1.9941999912261963,0.2631433010101318,0.0504225604236125,-0.1010720133781433
7.543169189453125,-0.2252999991178512,-1.434499979019165,-2.415099859237671,0.189542755484581,0.1893682181835174,0.033405601978302
7.563020751953125,-0.3070999979972839,-1.1898999214172363,-2.4417998790740967,-0.1896300166845321,0.1595056354999542,0.185912474989891
7.582873779296875,-0.3915999829769134,-0.8759999871253967,-0.5509999990463257,-0.4691968560218811,0.1758070141077041,0.2800729870796203
7.60272705078125,-0.5328999757766724,-0.6449999809265137,2.2788000106811523,-0.4030838012695312,0.2392846345901489,0.2997952103614807
7.62257861328125,-0.4596999883651733,-0.2377999871969223,2.263099908828736,-0.0745953693985939,0.1900663524866104,0.2757794857025146
7.642431640625,0.0006999999750405,-0.3831999897956848,0.6272000074386597,-0.0966912433505058,0.0952426195144653,0.2352878302335739
7.66228466796875,0.2741000056266784,-0.671999990940094,1.1165000200271606,-0.2107135951519012,0.0358316078782081,0.1796467453241348
7.682136474609375,0.0734999999403953,-1.069499969482422,0.2787999808788299,-0.2023709267377853,-0.0879645943641662,0.018291050568223
7.701989501953125,-1.6389999389648438,0.8660999536514282,1.0109000205993652,-0.2787465453147888,-0.4662996232509613,0.0104719754308462
7.721842529296875,0.0885999947786331,0.5684999823570251,0.7242000102996826,0.0449073202908039,-0.2538930475711822,0.0398458652198314
7.741694091796875,1.021399974822998,0.2277999967336654,-1.369499921798706,0.1574112474918365,0.0586779676377773,-0.0679456666111946
7.76154736328125,0.5963000059127808,0.2331999987363815,-2.0985000133514404,-0.0492880977690219,0.1271646916866302,-0.1172337681055069
7.781400390625,-0.0760999992489814,0.3885999917984009,-1.035099983215332,-0.2605427503585815,-0.0738448798656463,-0.0592364743351936
7.801251953125,0.2811000049114227,0.5390999913215637,-0.5146999955177307,-0.2549926042556762,-0.2586927115917206,0.004153883550316
7.8211220703125,0.5521999597549438,0.6789000034332275,-0.2287999987602234,-0.2029992491006851,-0.2167698889970779,0.0166678950190544
7.840958251953125,0.8285999894142151,0.3689000010490417,-0.064300000667572,-0.1893333196640014,-0.0632856413722038,0.0185703039169311
7.860811279296875,0.7572000026702881,0.0764999985694885,0.7095999717712402,-0.2202954590320587,0.0296531431376934,-0.0089186327531933
7.880662841796875,0.3215000033378601,0.152099996805191,1.5195000171661377,-0.122033417224884,-0.0183259565383195,-0.0151669112965464
7.900515869140625,0.1727999895811081,0.2705000042915344,1.1729999780654907,0.0174707453697919,-0.0867079570889473,-0.0204378049820661
7.920369384765625,0.3172999918460846,0.2775999903678894,0.7236999869346619,0.074804812669754,-0.1561720669269561,-0.0264242850244045
7.940222412109375,0.3333999812602997,0.1378999948501587,0.3100999891757965,0.0773529931902885,-0.190642312169075,-0.0676489621400833
7.960073974609375,0.5442000031471252,-0.0414000004529953,0.2302999943494796,0.117862083017826,-0.1560673415660858,-0.0975464507937431
7.979927001953125,0.3129000067710876,-0.2863999903202057,-0.5019999742507935,0.1046673953533172,-0.1050339117646217,-0.1252971887588501
7.9997802734375,-0.0343999974429607,-0.1369999945163726,-0.4807999730110168,0.0657290965318679,-0.1633802652359008,-0.1287354826927185
8.0196318359375,-0.1947999894618988,-0.0401999987661838,-0.6596999764442444,-0.0035604715812951,-0.1655793786048889,-0.0845262929797172
8.03948486328125,0.1789999902248382,-0.255400002002716,-0.5615999698638916,-0.0199491139501333,-0.0705985650420188,-0.0798662677407264
8.059337890625,-0.0006999999750405,-0.1345999985933303,-0.2301999926567077,-0.0136484745889902,0.0328994579613208,-0.0891863256692886
8.079191162109375,-0.0056999996304512,-0.0442999973893165,-0.1729999929666519,-0.0205774325877428,-0.0143466060981154,-0.0930434986948967
8.099041259765626,0.0015000000130385,0.1941999942064285,0.0403999984264373,-0.082274816930294,-0.1018225103616714,-0.0952600687742233
8.118895751953126,0.2202999889850616,0.1486999988555908,0.4142999947071075,-0.1077391728758812,-0.123290054500103,-0.0845611989498138
8.138747314453125,0.5029000043869019,0.0387999974191188,0.8149999976158142,-0.0601614974439144,-0.0972846522927284,-0.0662352442741394
8.158600341796875,0.5033000111579895,0.048599999397993,0.8578000068664551,0.0439299382269382,-0.0753982216119766,-0.0738797858357429
8.17845361328125,0.2825999855995178,0.257099986076355,0.2251999974250793,0.1165356338024139,-0.0859051048755645,-0.0548033379018306
8.198306640625,0.2739999890327453,0.3456999957561493,-0.3209999799728393,0.1019970402121543,-0.0616450272500515,-0.0451691225171089
8.218158203125,0.0819000005722045,0.338699996471405,-0.0842999964952468,0.0631460100412368,0.0215024556964635,-0.0179594382643699
8.238009765625,0.1457999944686889,0.2203999906778335,-0.048200000077486,0.0977558940649032,0.0921533852815628,-0.0091978851705789
8.257864501953126,0.3379999995231628,0.1946000009775161,-0.2831999957561493,0.090425506234169,0.082798421382904,-0.0199665669351816
8.277716064453125,0.2354999929666519,0.150299996137619,-0.2441999912261963,0.0795521065592765,0.0496197119355201,-0.0573515184223651
8.297569091796875,-0.0938000008463859,0.3136000037193298,-0.4023999869823456,0.0272794961929321,-0.0038746309000998,-0.0640186741948127
8.317422119140625,0.2645999789237976,0.1616999953985214,-0.1052000001072883,0.015201817266643,0.0481710880994796,-0.0579100251197814
8.337275634765625,0.3071999847888946,0.1197999939322471,0.1120999976992607,0.0657640025019645,0.1158374994993209,-0.0857829302549362
8.357126953125,0.1188999935984611,0.1871999949216842,-0.1260000020265579,0.0776496976613998,0.1010196581482887,-0.0760090872645378
8.37697998046875,0.0063999998383224,0.1645999997854232,-0.0196000002324581,0.03394665569067,0.0211010314524173,-0.0606676451861858
8.396833251953124,0.1732999980449676,0.1588999927043914,0.3075999915599823,0.0485201515257358,0.0005235987482592,-0.0346971452236175
8.4166845703125,0.3046999871730804,0.0528999976813793,0.3814999759197235,0.09965830296278,0.0483630746603012,-0.0357967019081115
8.4365380859375,0.2581999897956848,0.0554999969899654,0.2556000053882599,0.1595230996608734,0.0921359285712242,-0.0291644521057605
8.456389404296875,0.2656999826431274,-0.0376999974250793,-0.2768000066280365,0.1640260368585586,0.0977908000349998,-0.0237539317458868
8.47624267578125,-0.0296000000089406,0.1316999942064285,-0.5726000070571899,0.0262672044336795,-0.0141371665522456,-0.003246312495321
8.496093994140624,0.1350999921560287,0.029399998486042,-0.2655999958515167,-0.025307273492217,-0.0282917879521846,0.0361806750297546
8.515947509765626,0.2833999991416931,-0.3978999853134155,-0.5429999828338623,0.158353716135025,0.1229060888290405,-0.0261799395084381
8.535800537109376,-0.4487999975681305,0.3903999924659729,-0.8000999689102173,-0.0567581057548522,-0.122714102268219,0.0014660765882581
8.555653564453126,0.1684999912977218,0.1348000019788742,0.0466999970376491,-0.1350361257791519,-0.2104867100715637,0.0382925234735012
8.575506591796875,0.3655999898910522,-0.1375000029802322,0.4829999804496765,-0.0404392778873443,-0.1316327303647995,0.0045378562062978
