seconds_elapsed,accel_x,accel_y,accel_z,gyro_x,gyro_y,gyro_z
0.222212890625,0.4417999982833862,-0.17009998857975,0.2040999978780746,-0.381249725818634,0.2186024934053421,-0.0614879503846168
0.242045654296875,0.4417999982833862,-0.17009998857975,0.2040999978780746,-0.381249725818634,0.2186024934053421,-0.0614879503846168
0.26189892578125,-0.0052000000141561,-0.2509999871253967,-0.486299991607666,-0.381249725818634,0.2186024934053421,-0.0614879503846168
0.281751953125,-0.2097999900579452,-0.3492999970912933,-0.7803999781608582,-0.381249725818634,0.2186024934053421,-0.0614879503846168
0.301603515625,-0.3768999874591827,-0.5424999594688416,0.0315000005066394,-0.381249725818634,0.2186024934053421,-0.0614879503846168
0.32145654296875,-0.1098999977111816,-0.7608999609947205,0.1988999992609024,-0.381249725818634,0.2186024934053421,-0.0614879503846168
0.341309814453125,-0.0551999993622303,-0.8481000065803528,0.1789999902248382,-0.381249725818634,0.2186024934053421,-0.0614879503846168
0.361161376953125,0.0948999971151351,-0.793999969959259,0.3689999878406524,-0.381249725818634,0.2186024934053421,-0.0614879503846168
0.381014404296875,-0.1030000001192092,-0.567799985408783,0.023199999704957,-0.2639636099338531,0.3517711162567138,-0.1384569704532623
0.400867431640625,-0.632099986076355,-0.2742999792098999,-0.0015999999595806,-0.2708925604820251,0.4161912202835083,-0.1323483139276504
0.420718994140625,-1.111299991607666,-0.1842999905347824,0.4998999834060669,-0.2873859107494354,0.4132066965103149,-0.077161006629467
0.440572265625,-1.5490999221801758,-0.277999997138977,1.0120999813079834,-0.2923600971698761,0.3078237175941467,0.007435102481395
0.46042529296875,-1.6238999366760254,-0.3111999928951263,1.4656000137329102,-0.2343977242708206,0.189542755484581,0.09965830296278
0.480278564453125,-1.6638998985290527,-0.2446999996900558,1.3442000150680542,-0.1096590384840965,0.1485798805952072,0.1737300753593444
0.5001298828125,-1.8071999549865725,-0.2811000049114227,0.8119999766349792,-0.1096590384840965,0.1485798805952072,0.1737300753593444
0.5199833984375,-1.524399995803833,-0.4887999892234802,0.2827000021934509,-0.1700474321842193,0.0604407526552677,0.3562566041946411
0.53983642578125,-0.9935999512672424,-0.8389999866485596,0.6453999876976013,-0.3210533261299133,-0.0244520623236894,0.3550697863101959
0.55968798828125,-0.7795000076293945,-0.9910999536514282,1.4751999378204346,-0.2985036671161651,-0.028204521164298,0.2951526343822479
0.579541015625,-0.7440999746322632,-1.0156999826431274,1.5018999576568604,-0.1361705809831619,-0.0090233525261282,0.2305579930543899
0.599392822265625,-0.4935999810695648,-0.8880999684333801,0.3822999894618988,-0.0587477833032608,-0.0608770847320556,0.1582490056753158
0.619245849609375,-0.2486999928951263,-0.6880999803543091,-0.9494999647140504,-0.1328370124101638,-0.1176875531673431,0.1025380939245224
0.639098876953125,0.1873999983072281,-0.5133999586105347,-1.5235999822616575,-0.2941927015781402,-0.1212654784321785,0.0589048638939857
0.658950439453125,0.4470999836921692,-0.4514999985694885,-0.7938999533653259,-0.3787015378475189,-0.0692197605967521,-0.002076941775158
0.6788037109375,0.7042999863624573,-0.3853999972343445,-0.3120999932289123,-0.3007900416851043,-0.0848579108715057,-0.080442227423191
0.69865673828125,0.9449999928474426,-0.1727000027894973,-1.100499987602234,-0.2580643892288208,-0.1812698990106582,-0.1918989568948745
0.718509765625,0.9485999941825868,0.2863999903202057,-1.702399969100952,-0.2765648663043976,-0.2958333194255829,-0.3109652996063232
0.738361328125,0.4278999865055084,0.7427999973297119,-2.3313000202178955,-0.3710570037364959,-0.2872462868690491,-0.353708416223526
0.758214599609375,0.3580999970436096,0.8603000044822693,-1.5302999019622805,-0.397917628288269,-0.2688505053520202,-0.3252770006656647
0.778067626953125,0.6664999723434448,0.6552000045776367,-1.0824999809265137,-0.3091152608394623,-0.3138800263404846,-0.3228684663772583
0.797919189453125,0.7365999817848206,0.6662999987602234,-1.1697999238967896,-0.2225469350814819,-0.4410097897052765,-0.3650879859924316
0.817772216796875,0.8798999786376953,0.8068000078201294,-1.548799991607666,-0.1610764414072036,-0.5237558484077454,-0.3882485032081604
0.83762548828125,0.7127000093460083,0.7181999683380127,-1.1995999813079834,-0.1509011685848236,-0.5597270727157593,-0.3935193717479706
0.85747705078125,0.6055999994277954,0.6840999722480774,-0.5843999981880188,-0.106971226632595,-0.6253165602684021,-0.3814940750598907
0.877330078125,0.7175999879837036,0.5701000094413757,0.1805000007152557,0.0498466044664382,-0.6832789182662964,-0.3506191968917846
0.89718310546875,1.1230000257492063,0.2079999893903732,1.3264999389648438,0.3713537156581878,-0.6421415209770203,-0.3338640332221985
0.917036376953125,1.437399983406067,0.2347999960184097,1.0784000158309937,0.8203920125961304,-0.4533841907978058,-0.3465700149536133
0.936887939453125,1.490799903869629,0.335099995136261,0.0630999952554702,0.9854652285575868,-0.2271895110607147,-0.3444930911064148
0.956740966796875,1.0088999271392822,-0.0731000006198883,1.4742000102996826,1.0588912963867188,0.0638615936040878,-0.2907020449638366
0.976593994140625,0.3335999846458435,-0.5986999869346619,3.2236998081207275,1.3915684223175049,0.2910161912441253,-0.1573065221309662
0.996447265625,0.5417999625205994,-1.1001999378204346,3.506099939346313,1.6785529851913452,0.1907121241092682,-0.1099731922149658
1.016298828125,0.243599995970726,-0.836899995803833,3.589599847793579,1.5186982154846191,-0.0860447287559509,-0.1221904978156089
1.036152099609375,-0.4527999758720398,-0.1685999929904937,6.150099754333496,1.2289037704467771,-0.3030066192150116,0.0934623777866363
1.056005126953125,-0.3203999996185303,-0.1024999991059303,9.8503999710083,1.2325166463851929,-0.2154783457517624,0.3726801574230194
1.075856689453125,0.2456000000238418,-0.3572999835014343,11.133399963378906,1.1858116388320925,0.1793151199817657,0.3105464279651642
1.0957099609375,-1.9368999004364011,0.3315999805927276,12.073899269104004,0.7300537824630737,0.320913702249527,0.0286583062261343
1.11556298828125,-3.5288000106811523,1.573599934577942,15.035799980163574,0.2598271667957306,-0.1614953130483627,-0.0127583565190434
1.13541455078125,-2.267400026321411,2.437099933624268,14.952799797058104,0.114947386085987,-1.1937528848648071,-0.1239009201526641
1.155267578125,0.4334999918937683,3.0023000240325928,11.76669979095459,-0.1464680284261703,-1.5622965097427368,-0.570460855960846
1.175120849609375,0.0211999993771314,3.7289998531341553,7.277799606323242,-0.3858224749565124,-1.0078753232955933,-0.8952491879463196
1.194972412109375,-1.2803000211715698,2.733299970626831,2.201900005340576,-1.082924485206604,-0.113324224948883,-0.7459886074066162
1.214825439453125,-0.9856999516487122,0.8440999984741211,-0.5291000008583069,-2.248158693313598,0.207711637020111,-0.6063099503517151
1.234678466796875,-1.2967000007629397,-0.6451999545097351,0.9732999801635742,-2.9463253021240234,0.4363846778869629,-0.5927836298942566
1.254530029296875,-3.1233999729156494,-0.8104000091552734,1.8529999256134035,-2.5279173851013184,1.1648502349853516,-0.5139819979667664
1.27438330078125,-2.979699850082397,0.5097000002861023,3.673799991607666,-1.0280338525772097,1.6107120513916016,-0.2206619828939438
1.294236328125,-1.4648000001907349,2.260200023651123,-1.3473999500274658,0.6981666088104248,0.7742629647254944,0.1099731922149658
1.31408935546875,0.8845999836921692,1.3489999771118164,-8.058799743652344,1.2564276456832886,-0.4054399728775024,0.3696781992912292
1.33394091796875,4.075099945068359,0.2911999821662903,-11.12909984588623,1.334583401679993,-1.4314491748809814,0.1890889704227447
1.353794189453125,4.387499809265137,-0.2381999939680099,-13.24329948425293,1.334618330001831,-1.588773250579834,-0.4087735712528229
1.373647216796875,1.211899995803833,0.0,-13.921099662780762,1.008451223373413,-1.4978415966033936,-0.7990291714668274
1.393498779296875,-1.6000999212265017,0.9128999710083008,-13.157599449157717,0.4413065016269684,-1.284021258354187,-0.5135456919670105
1.413351806640625,-1.5760999917984009,0.298799991607666,-10.967700004577637,0.0434586964547634,-0.8641124963760376,0.0668810158967971
1.433205078125,-0.5877000093460083,-0.8774999976158142,-9.42490005493164,-0.0794822946190834,-0.4086688458919525,0.4594579339027405
1.453056640625,1.011099934577942,-2.4486000537872314,-8.257699966430664,-0.1266410946846008,-0.1065174415707588,0.5034053325653076
1.47290966796875,1.3562999963760376,-3.3035998344421387,-7.058599948883057,-0.126012772321701,0.054227378219366,0.2054601609706878
1.4927626953125,0.183799996972084,-3.466099977493286,-5.8225998878479,0.0653974860906601,0.1937315464019775,-0.0607723630964756
1.5126162109375,-1.0509999990463257,-3.5588998794555664,-5.574699878692627,0.4279023706912994,0.3248755931854248,-0.1197644919157028
1.532467529296875,-1.7278000116348269,-3.7269999980926514,-5.457900047302246,0.8928231596946716,0.5185896754264832,-0.008517206646502
1.55232080078125,-1.1819000244140625,-4.005399703979492,-5.884199619293213,1.4213438034057615,0.7692887783050537,0.0673348009586334
1.572172119140625,-1.343699932098389,-4.159599781036377,-7.804100036621094,1.6928472518920898,0.9835628271102904,0.0305432621389627
1.592025634765625,-1.8980000019073489,-3.9953999519348153,-9.014599800109863,1.453161120414734,0.9055292010307312,0.0880344063043594
1.611878662109375,-2.4733998775482178,-4.285399913787842,-8.047900199890137,1.0379996299743652,0.8025373220443726,0.1660680770874023
1.631730224609375,-2.330399990081787,-4.177700042724609,-5.740200042724609,0.7122862935066223,0.554857611656189,0.2768790423870086
1.651583251953125,-0.7710999846458435,-4.5524001121521,-1.9021999835968015,0.6312332153320312,0.3009296655654907,0.2374171316623687
1.6714365234375,1.944299936294556,-3.2737998962402344,4.164000034332275,0.9743300676345824,0.2080781459808349,-0.1617920249700546
1.69128955078125,2.380100011825561,1.3634999990463257,6.825699806213379,1.8643083572387693,0.3219957947731018,-0.707277238368988
1.71114111328125,0.4623000025749206,6.959699630737305,2.834699869155884,1.7459924221038818,0.5248728394508362,-0.3692592978477478
1.730994140625,1.81470000743866,9.530099868774414,3.119799852371216,0.4115835428237915,0.4168369770050049,0.5698674321174622
1.750845703125,1.439099907875061,5.929800033569336,2.8203999996185303,-1.328090786933899,-0.3890164494514465,1.0366907119750977
1.770698974609375,1.8240998983383176,2.492300033569336,10.427800178527832,-2.37514877319336,-0.5483300685882568,0.976337194442749
1.790552001953125,4.203700065612793,2.7747998237609863,15.424399375915527,-1.6746609210968018,-0.830061137676239,0.4468391835689544
1.810405029296875,3.8496999740600586,4.769899845123291,9.078700065612791,-0.7417474985122681,-0.4030488729476928,-0.1693318486213684
1.830256591796875,-0.9886999726295472,6.522500038146973,3.983199834823608,-0.7002086639404297,0.7582233548164368,-0.2810154557228088
1.85010986328125,-4.275700092315674,5.159299850463867,2.12719988822937,-1.099662184715271,1.2947375774383545,0.2627767622470855
1.869962890625,-2.1382999420166016,1.570599913597107,-0.031199999153614,-1.812611699104309,0.6915867328643799,0.5759237408638
1.889814453125,0.4259999990463257,-0.6139999628067017,-0.1462000012397766,-2.3162264823913574,-0.1908866614103317,0.3709173798561096
1.90966748046875,1.291800022125244,-1.2250999212265017,0.3935999870300293,-2.12624740600586,-0.3446850776672363,0.0831998437643051
1.929520751953125,0.7120999693870544,-1.3702999353408811,-0.2597000002861023,-1.33226215839386,0.1795943826436996,-0.0789237916469574
1.949372314453125,0.1316999942064285,-1.3020999431610107,-3.1571998596191406,-0.7259871363639832,0.710157036781311,-0.0750142484903335
1.969225341796875,0.9822999835014344,-1.942099928855896,-5.046199798583984,-0.6820048689842224,0.8816356062889099,-0.0925373584032058
1.989078369140625,2.0618999004364014,-2.667399883270264,-4.269700050354004,-0.8337263464927673,0.6917088627815247,-0.3431317210197449
2.008929931640625,1.4052000045776367,-2.46809983253479,-1.9306999444961548,-0.6629981994628906,0.2753955125808716,-0.6597170233726501
2.028783203125,-0.4192999899387359,-1.0597000122070312,-1.6129000186920166,-0.0789412409067154,-0.0663574188947677,-0.7128273844718933
2.04863623046875,-0.9718999862670898,0.0150999994948506,-3.1778998374938965,0.4799131751060486,-0.2019869536161422,-0.5701118111610413
2.068489501953125,-1.4589999914169312,0.482699990272522,-4.997399806976318,0.7328113913536072,-0.2606125771999359,-0.3639709651470184
2.0883408203125,-1.0161999464035034,0.2430000007152557,-3.908599853515625,0.7246432304382324,-0.2909812927246094,-0.240768164396286
2.1081943359375,-1.536099910736084,0.8172999620437622,0.3292999863624573,1.2379270792007446,-0.1392772793769836,-0.3281742632389068
2.12804736328125,-3.422499895095825,2.9258999824523926,2.075500011444092,1.9108911752700808,-0.043877575546503,-0.0903382450342178
2.14789892578125,-0.7555999755859375,4.204800128936768,5.731199741363525,1.9084302186965945,-0.3410024344921112,0.4372398853302002
2.167751953125,3.894899845123291,5.307300090789795,14.476399421691896,2.310274839401245,-0.833691418170929,0.1859648376703262
2.187605224609375,-0.02449999935925,8.153599739074707,19.236099243164062,2.886495351791382,-0.0512254126369953,-0.1000073626637458
2.207458251953125,-3.220899820327759,9.159299850463867,21.42989921569824,3.056856870651245,-0.0928689688444137,0.4212875664234161
2.227309814453125,-0.5442000031471252,7.620599746704102,17.66819953918457,2.6907742023468018,-0.907553732395172,0.5074893832206726
2.247162841796875,-0.2858999967575073,8.356900215148926,12.370399475097656,2.105128765106201,-1.2091116905212402,0.1489289402961731
2.28686767578125,0.5006999969482422,8.459699630737305,0.3300999999046325,0.950872838497162,0.4323354959487915,0.2615026831626892
2.306720703125,-0.1564999967813491,6.809700012207031,-4.174699783325195,0.2459692507982254,1.2803735733032229,0.5787860751152039
2.32657373046875,-2.194999933242798,1.5951999425888062,-7.624899864196777,-1.114933729171753,1.2058653831481934,1.021488904953003
2.346425537109375,-1.0540000200271606,-3.244799852371216,-5.4166998863220215,-2.211087703704834,-0.1364149302244186,1.3812710046768188
2.366278564453125,1.781499981880188,-6.313999652862549,-4.339699745178223,-2.3615875244140625,-1.477264165878296,1.310829520225525
2.386131591796875,4.120899677276611,-6.535299777984619,-4.154900074005127,-1.6246920824050903,-1.591286540031433,0.912999153137207
2.405984619140625,3.624699831008911,-5.811399936676025,-5.418499946594238,-0.3373197913169861,-0.7313802242279053,0.3763453364372253
2.42583642578125,1.315400004386902,-4.9268999099731445,-8.605599403381348,0.5450488924980164,0.2859372794628143,0.1344601660966873
2.445689453125,-0.8227999806404114,-4.876399993896484,-9.011699676513672,0.5664116740226746,0.5651026964187622,0.2198765724897384
2.46554248046875,-1.0336999893188477,-5.277899742126465,-7.674799919128418,0.3011565506458282,-0.0751364231109619,0.4798433780670166
2.48539404296875,0.1724999994039535,-6.258499622344971,-7.86329984664917,-0.0096516711637377,-0.9574177861213684,0.5356590151786804
2.5052470703125,0.1339000016450882,-6.607999801635742,-7.074199676513672,-0.1624028831720352,-1.3505357503890991,0.342730313539505
2.525098876953125,0.5062999725341797,-6.720399856567383,-7.531799793243408,0.0294437035918235,-1.1245853900909424,0.0520980767905712
2.544951904296875,-0.0920000001788139,-6.2044997215271,-8.508699417114258,0.1567480266094207,-0.4855680465698242,-0.1984264850616455
2.56480517578125,-0.5766000151634216,-6.03439998626709,-8.027099609375,0.1962099075317382,0.0444011762738227,-0.3446327149868011
2.584658203125,-1.6273999214172363,-5.927099704742432,-7.232499599456787,0.259635180234909,0.2624626159667969,-0.4250749349594116
2.604510009765625,-2.541599988937378,-5.8557000160217285,-7.053999900817871,0.2951002717018127,0.1453684717416763,-0.3818431198596954
2.624363037109375,-2.281899929046631,-6.06220006942749,-7.317999839782715,0.2870891988277435,-0.1417556405067443,-0.3370579779148102
2.644216064453125,-1.992799997329712,-5.843800067901611,-7.867300033569336,0.3182433247566223,-0.1907994002103805,-0.3593283891677856
2.664069091796875,-2.1884000301361084,-5.640500068664551,-8.910999298095703,0.3799756169319153,0.1455779075622558,-0.3673219978809356
2.6839208984375,-2.4582998752593994,-5.103300094604492,-9.36929988861084,0.3108256757259369,0.5735675692558289,-0.3200061023235321
2.70377392578125,-2.6287999153137207,-4.406499862670898,-8.59280014038086,-0.0378038324415683,0.8640252351760864,-0.2579073011875152
2.723626953125,-1.9089999198913572,-3.585399866104126,-5.285399913787842,-0.5496041774749756,0.9119170904159546,-0.2422866076231002
2.743478515625,-1.0749000310897827,-1.5663999319076538,1.462799906730652,-0.7207686305046082,0.765134871006012,-0.4717101454734802
2.763331787109375,0.7748000025749207,3.006700038909912,8.903800010681152,-0.1611811518669128,0.4492477476596832,-0.6603103876113892
2.783184814453125,4.087800025939941,7.716799736022949,6.9263997077941895,0.1374446749687194,-0.1778665035963058,-0.4837703704833984
2.803036376953125,7.202499866485596,10.951600074768066,6.701699733734131,-0.7139269113540649,-0.0197920333594083,-0.4471882581710815
2.822889404296875,3.3938000202178955,10.142999649047852,9.572400093078612,-1.857745885848999,0.9983981251716614,-0.3849149048328399
2.842740966796875,-0.0835999995470047,8.119699478149414,17.314899444580078,-2.4016079902648926,1.3906958103179932,-0.0191462617367506
2.86259423828125,0.7232999801635742,4.6417999267578125,22.71789932250977,-1.995155692100525,0.3292214572429657,-0.063756875693798
2.882447265625,-0.2763999998569488,4.950599670410156,16.292598724365234,-0.6423335075378418,-0.7054271697998047,-0.5969375371932983
2.902298828125,-3.3249998092651367,6.077399730682373,3.8506999015808105,-0.4735601842403412,0.0126536367461085,-0.4088782966136932
2.922153564453125,-3.159199953079224,3.802500009536743,-0.3111000061035156,-1.4516775608062744,0.9454099535942078,-0.1396437883377075
2.942005126953125,-3.0804998874664307,1.2501999139785769,0.557200014591217,-2.377103567123413,0.6610957980155945,-0.0819083005189895
2.961858154296875,-1.6818000078201294,-0.2689000070095062,1.205600023269653,-2.782334089279175,-0.2441191971302032,-0.090949110686779
2.981709716796875,-0.8179999589920044,-0.2140999883413314,1.0132999420166016,-2.344029426574707,-0.6700319051742554,-0.1079137101769447
3.001562744140625,-0.6220999956130981,-0.3780999779701233,-0.2320999950170517,-1.4067702293395996,-0.2877000868320465,0.0031241392716765
3.021416015625,0.0586999990046024,-0.7518999576568604,-2.006700038909912,-0.3429571986198425,0.2641206681728363,0.0958709344267845
3.041267578125,1.0541999340057373,-1.6387999057769775,-4.408599853515625,0.2680476605892181,0.3007027804851532,-0.0257785134017467
3.06112060546875,0.7095999717712402,-1.6311999559402466,-6.513099670410156,0.3815289735794067,-0.1618443876504898,-0.2442588210105896
3.080973876953125,-0.2496999949216842,-1.7238999605178833,-7.325500011444092,0.3280171751976013,-0.6468888521194458,-0.3149446547031402
3.100825439453125,-1.089900016784668,-1.7285000085830688,-7.51099967956543,0.3900636434555053,-0.9141860008239746,-0.2808060348033905
3.1206787109375,-1.784999966621399,-1.1568999290466309,-7.767699718475342,0.5660102963447571,-0.7894298434257507,-0.1472359746694564
3.14053173828125,-1.3158999681472778,-1.2846999168395996,-8.15880012512207,0.5787860751152039,-0.5330759286880493,-0.0208392310887575
3.160384765625,-1.305899977684021,-0.9524999856948853,-6.430599689483643,0.4437499642372131,-0.4958829581737518,-0.0233175978064537
3.180236572265625,-2.0922000408172607,-0.4773999750614166,-2.630100011825561,0.4539950489997864,-0.5070356130599976,0.0044680428691208
3.200089599609375,-0.3516999781131744,0.1730999946594238,3.4477999210357666,0.8382118344306946,-0.5249426960945129,0.0531976372003555
3.219942626953125,3.774899959564209,1.274399995803833,7.769099712371826,1.232900619506836,-0.8308988809585571,-0.2824291884899139
3.239794189453125,5.829899787902832,4.348899841308594,14.227099418640137,1.5924384593963623,-0.4350407719612121,-0.631826639175415
3.259647216796875,4.522599697113037,7.437699794769287,20.973899841308597,2.4180140495300293,1.0011383295059204,-0.6603627800941467
3.27950048828125,2.809799909591675,7.393499851226807,21.912899017333984,2.9666757583618164,1.397432804107666,-0.4678878784179687
3.29935205078125,1.2197999954223633,8.30840015411377,16.500900268554688,2.488560199737549,0.4366639256477356,-0.3535513579845428
3.319205078125,3.2888998985290527,8.193300247192383,11.494699478149414,1.67073392868042,0.4145157039165497,-0.2823069989681244
3.33905810546875,1.6205999851226809,7.09559965133667,9.026000022888184,1.266218900680542,1.1797553300857544,-0.4193328022956848
3.358909912109375,-2.567100048065185,6.920699596405029,2.6830999851226807,0.6333450675010681,1.362665772438049,-0.1684940904378891
3.378762939453125,-2.8924999237060547,4.613699913024902,-1.958799958229065,-0.7440862059593201,0.6053674221038818,0.1947612911462783
3.398615966796875,-1.5748999118804932,2.1401000022888184,-1.9054999351501465,-1.577114462852478,0.0102276289835572,0.2892883121967315
3.418468994140625,-1.821900010108948,-0.7770999670028687,-1.8869999647140503,-1.478520750999451,0.0802502408623695,0.4247084259986877
3.43832080078125,-1.6780999898910522,-3.5483999252319336,-3.350399971008301,-1.033915638923645,0.1592612862586975,0.6182654500007629
3.458173828125,0.1372999995946884,-5.496999740600586,-3.918200016021729,-0.5945115089416504,-0.1603259444236755,0.6685483455657959
3.47802685546875,1.7192999124526978,-6.349599838256836,-4.400199890136719,-0.1032362282276153,-0.832556962966919,0.4460363388061523
3.49787841796875,3.1614999771118164,-6.1844000816345215,-6.252599716186523,0.498919814825058,-1.324163794517517,0.0396887883543968
3.517731689453125,3.100600004196167,-5.767999649047852,-10.067899703979492,0.8055043816566467,-1.0522764921188354,-0.4527384042739868
3.537584716796875,1.2250999212265017,-4.416299819946289,-12.269099235534668,0.5666211247444153,-0.3706206679344177,-0.520247757434845
3.557436279296875,-0.5867999792098999,-3.672799825668335,-11.223999977111816,0.0762185305356979,0.1785471886396408,-0.1706233918666839
3.577289306640625,-0.599399983882904,-4.482399940490723,-9.177199363708496,-0.4324053227901459,0.156521126627922,0.2049889266490936
3.597142822265625,0.5112000107765198,-5.557499885559082,-7.233299732208252,-0.7678226828575134,-0.1880941390991211,0.2206968814134597
3.616994140625,0.5633000135421753,-5.751999855041504,-5.712299823760986,-0.8483871221542358,-0.2819055914878845,0.0499338693916797
3.636847412109375,-0.2552999854087829,-5.40369987487793,-4.500400066375732,-0.593202531337738,-0.2040988057851791,-0.0483456216752529
3.656700439453125,-0.6394999623298645,-4.921799659729004,-4.350500106811523,-0.1368338167667389,-0.1121723130345344,-0.0744208395481109
3.6765537109375,-0.5741999745368958,-4.722899913787842,-5.63730001449585,0.2387959510087967,-0.0526914894580841,-0.1258556991815567
3.6964052734375,-0.219200000166893,-4.5000996589660645,-7.437199592590332,0.3470063507556915,0.0050090947188436,-0.3121870458126068
3.71625830078125,-1.0124999284744265,-3.9348998069763184,-7.481299877166748,0.3545287251472473,-0.062639869749546,-0.4637165367603302
3.736111328125,-2.0170998573303223,-3.519699811935425,-7.915499687194824,0.4072376787662506,-0.1102699041366577,-0.4502774775028229
3.755962890625,-2.882799863815308,-3.1126999855041504,-8.343299865722656,0.3850021660327911,-0.0256737936288118,-0.2550275027751922
3.775816162109375,-2.4003000259399414,-3.25849986076355,-8.17549991607666,0.2442937344312667,0.0567581057548522,-0.126012772321701
3.795669189453125,-1.367900013923645,-3.036099910736084,-5.95359992980957,0.1696634590625763,-0.0752411410212516,-0.2287952154874801
3.815522216796875,-0.8464999794960022,-2.0667998790740967,-3.5516998767852783,0.1763131618499755,-0.1769763827323913,-0.4532620012760162
3.835373779296875,0.3779999911785126,0.1546999961137771,2.666699886322021,0.0055152405984699,-0.07370525598526,-0.6614972352981567
3.85522705078125,0.7888999581336975,3.374300003051758,14.298500061035156,0.8193448185920715,-0.0086393794044852,-1.018870830535889
3.875080078125,-0.6327999830245972,6.253599643707275,16.288700103759766,2.2303736209869385,-0.5455549955368042,-0.8833460211753845
3.894931640625,2.801100015640259,9.106800079345703,5.098799705505371,2.1315879821777344,-1.3297837972640991,-0.3321361541748047
3.91478466796875,4.741699695587158,9.7923002243042,-0.9800999760627748,0.2801078855991363,-1.5438659191131592,-0.0625176951289177
3.934636474609375,4.277699947357178,8.492599487304688,4.751699924468994,-1.2271584272384644,-0.69362872838974,0.1339714676141739
3.954490966796875,2.1176998615264893,6.513899803161621,11.745999336242676,-1.08426833152771,0.4044102430343628,0.2921157479286194
3.974342529296875,-0.2296999990940094,5.491600036621094,10.235899925231934,-0.6062400937080383,0.8966280221939087,0.3803945183753967
3.994195556640625,-1.8492999076843264,4.366600036621094,6.632199764251709,-0.5969724059104919,0.5862037539482117,0.392873615026474
4.014049072265625,-3.32099986076355,3.6915998458862314,2.2421000003814697,-1.0104060173034668,0.1435358822345733,0.4427551329135895
4.033900390625,-2.670399904251098,2.0748000144958496,0.736299991607666,-1.5268139839172363,-0.3394490778446197,0.7889760732650757
4.05375341796875,0.7102000117301941,0.0020999999251216,-1.1169999837875366,-1.709811806678772,-0.6669251918792725,0.956405520439148
4.073606689453125,3.315999984741211,-1.2838000059127808,-3.4926998615264893,-1.769903540611267,-0.4125609397888183,0.6968401670455933
4.0934580078125,2.149099826812744,-1.370100021362305,-3.68969988822937,-1.588459014892578,0.3407755494117737,0.3127455413341522
4.1133115234375,0.2768000066280365,-1.1571999788284302,-3.5927000045776367,-1.165687918663025,1.249324083328247,0.1695063710212707
4.13316455078125,-0.4892999827861786,-1.6947999000549316,-3.2156999111175537,-0.819083034992218,1.7171072959899902,0.104597583413124
4.15301611328125,-0.712399959564209,-2.0973000526428223,-1.9645999670028689,-0.5660800933837891,1.3766982555389404,-0.011257373727858
4.172869140625,-1.2102999687194824,-2.1140999794006348,-1.6107999086380005,-0.1823694556951522,0.6991440057754517,-0.0662701502442359
4.192722412109375,-1.4620999097824097,-1.9253000020980835,-3.266700029373169,0.25235715508461,0.2254441827535629,0.0294437035918235
4.212575439453125,-1.0712000131607056,-2.010699987411499,-5.513499736785889,0.4851840734481811,0.1613731384277343,0.1278802752494812
4.232427001953125,-0.444599986076355,-2.382499933242798,-6.348899841308594,0.4453905820846557,0.0543146468698978,0.0533896200358867
4.252280029296875,-1.3317999839782717,-1.4233999252319336,-4.8618998527526855,0.4116184413433075,-0.0124441972002387,-0.144932135939598
4.2721318359375,-3.734499931335449,-0.1940999925136566,-1.5525999069213867,0.7453253865242004,0.1269377917051315,-0.0689579620957374
4.29198486328125,-3.205399990081787,0.2606000006198883,-0.2057999968528747,1.2302477359771729,-0.0321664176881313,0.0824668034911155
4.31183642578125,-0.902899980545044,1.857699990272522,1.931399941444397,1.6133649349212646,-0.3349635899066925,-0.0246265958994627
4.351542724609375,0.6524999737739563,4.492499828338623,5.827600002288818,2.8428969383239746,0.8378627300262451,-0.0452912934124469
4.371395751953125,0.7662999629974365,5.632499694824219,6.159899711608887,2.014528751373291,1.1491771936416626,-0.0498640574514865
4.391247314453125,1.3079999685287476,3.9489998817443848,15.46339988708496,1.4695671796798706,0.6548824310302734,-0.2024058252573013
4.411100341796875,1.120100021362305,5.193599700927734,15.897500038146973,1.9925551414489744,0.0546113513410091,-0.7367034554481506
4.43095361328125,0.9265999794006348,10.301799774169922,8.734199523925781,1.6849583387374878,-0.0461814105510711,-0.811124324798584
4.45080517578125,2.7319998741149902,12.523699760437012,4.914499759674072,0.4053178131580353,0.0795172005891799,-0.3732037544250488
4.470658203125,3.9886999130249023,10.27180004119873,4.7642998695373535,-0.778922975063324,-0.0018675023457035,-0.1545663625001907
4.49051123046875,0.9580999612808228,6.853899955749512,6.1419997215271,-1.4338403940200806,0.0407185330986976,-0.015114551410079
4.51036279296875,-2.6141998767852783,3.110999822616577,4.887499809265137,-1.2032997608184814,0.1833992004394531,0.6511125564575195
4.530216064453125,0.6054999828338623,-0.148499995470047,-1.704800009727478,-1.3897184133529663,0.3748618066310882,1.253198742866516
4.550069091796875,0.5475000143051147,-2.409199953079224,-4.32289981842041,-2.14460825920105,0.0649262443184852,1.333710789680481
4.569922119140625,-0.9429999589920044,-4.307399749755859,-2.612299919128418,-2.4681224822998047,-0.5121319890022278,1.4916281700134275
4.589773681640625,0.3777999877929687,-5.842199802398682,-0.7568999528884888,-1.8074105978012085,-1.2382762432098389,1.5747931003570557
4.609626953125,2.9007999897003174,-6.328499794006348,-3.2819998264312744,-0.8052425384521484,-1.5947771072387695,1.2621872425079346
4.629480224609375,4.240600109100342,-4.882699966430664,-7.15749979019165,-0.0480663664638996,-1.2137718200683594,0.69362872838974
4.64933154296875,3.990799903869629,-3.6150999069213863,-10.88479995727539,0.0244869701564311,-0.4716752171516418,-0.0087440991774201
4.669184814453125,0.667199969291687,-2.285699844360352,-10.205299377441406,-0.3678630590438843,0.3964515328407287,-0.3647389113903045
4.6890380859375,-1.9002000093460083,-1.6431999206542969,-6.777299880981445,-0.6295053362846375,0.4569621086120605,-0.1497666984796524
4.70889111328125,-1.408199906349182,-2.588500022888184,-5.187999725341797,-0.8611279726028442,-0.167010560631752,0.1507789939641952
4.72874267578125,0.0668999999761581,-3.8104000091552734,-4.037600040435791,-0.9153728485107422,-0.4745026528835296,0.0879820436239242
4.748595703125,0.2784000039100647,-4.306600093841553,-2.510200023651123,-0.5319240093231201,-0.2569997310638428,-0.211359366774559
4.768448974609375,-0.6329999566078186,-3.9433999061584473,-2.863999843597412,0.2182883322238922,0.1967509686946869,-0.5086413025856018
4.788300537109375,-1.7041999101638794,-3.2665998935699463,-5.624799728393555,0.7298617959022522,0.421619176864624,-0.6400645971298218
4.808153564453125,-2.5471999645233154,-2.8668999671936035,-8.442299842834473,0.7365289330482483,0.4323878586292267,-0.6123138666152954
4.828006591796875,-2.5555999279022217,-2.799099922180176,-9.167399406433104,0.5710892081260681,0.4938409030437469,-0.4817981421947479
4.847858154296875,-2.397599935531616,-3.1006999015808105,-8.336699485778809,0.4606622159481048,0.4576951265335083,-0.3880914151668548
4.86771142578125,-2.17549991607666,-3.2826998233795166,-7.24899959564209,0.6196616888046265,0.5134060382843018,-0.3754726946353912
4.887564453125,-2.5327999591827397,-3.245199918746948,-7.144700050354004,0.9443452954292296,0.671812117099762,-0.3314380347728729
4.90741748046875,-3.739899873733521,-3.034899950027466,-8.084799766540527,1.1619703769683838,0.7341203689575195,-0.1271646916866302
4.92726904296875,-3.3098998069763184,-2.700599908828736,-9.74269962310791,1.0402162075042725,0.8329234719276428,0.2295107990503311
4.947122314453125,-1.2454999685287476,-3.176399946212769,-8.465399742126465,0.4201182126998901,0.7433531880378723,0.2735280096530914
4.966975341796875,-0.4770999848842621,-3.4027998447418213,-2.4563000202178955,-0.0161093883216381,0.5319938063621521,0.0694291964173317
4.986826904296875,1.3375999927520752,-1.6744999885559082,8.869799613952637,0.4303632974624634,0.2184105068445205,-0.2391450107097625
5.006679931640625,3.027099847793579,3.2089998722076416,11.036199569702148,1.746917486190796,-0.3062703907489776,-0.5913000702857971
5.026533203125,2.3683998584747314,8.865300178527832,0.8685999512672424,1.3440605401992798,-0.0768643021583557,-0.1659633517265319
5.046384765625,4.101099967956543,9.45949935913086,2.5192999839782715,-0.4886572957038879,-0.0999724566936492,0.2647838890552521
5.06623779296875,2.963899850845337,7.944299697875977,6.520999908447266,-1.902321577072144,-0.242530956864357,0.2167349904775619
5.08608935546875,0.2513000071048736,6.428599834442139,11.359699249267578,-2.5100975036621094,0.1597325354814529,0.4063650071620941
5.105942626953125,-0.6704999804496765,3.697599887847901,14.684799194335938,-2.1654648780822754,0.329326182603836,0.2976658940315246
5.125795654296875,-4.255099773406982,4.736299991607666,12.298199653625488,-1.1237651109695437,0.5085016489028931,0.0509112551808357
5.14564892578125,-6.497200012207031,5.241499900817871,4.376199722290039,-0.8592604994773865,0.7883826494216919,0.4210083186626434
5.165501953125,-4.085299968719482,3.121699810028076,0.3486999869346618,-1.3887410163879397,0.686734676361084,0.7381520867347717
5.185353759765625,-0.9511999487876892,0.5638999938964844,2.828699827194214,-1.6156163215637207,0.3519805371761322,0.6593155860900879
5.205206787109375,0.5467999577522278,-0.2043000012636184,2.676499843597412,-0.9843482375144958,0.0746302753686904,0.3422765135765075
5.225058349609375,0.7196999788284302,-0.0504000000655651,-0.5974999666213989,-0.3269350826740265,0.0032288590446114,0.1210560351610183
5.244911376953125,0.8484999537467957,-0.0224999990314245,-4.770499706268311,-0.0301767420023679,0.0824493542313575,0.0359712354838848
5.264764404296875,1.3020999431610107,-0.5281999707221985,-6.958699703216553,-0.1886526346206665,0.1923352777957916,-0.0046774824149906
5.28461767578125,1.2390999794006348,-1.524799942970276,-6.353399753570557,-0.399837464094162,0.1622108966112136,-0.085695669054985
5.30446923828125,0.8237999677658081,-1.835099935531616,-3.655399799346924,-0.1965415328741073,0.0596204474568367,-0.1333955079317093
5.324322265625,0.295199990272522,-1.6912999153137207,-3.4238998889923096,0.3882834017276764,0.1339016556739807,-0.1714087873697281
5.34417529296875,-0.4013999998569488,-0.8721999526023865,-4.970799922943115,0.8128870725631714,0.506389856338501,-0.0959058403968811
5.364028564453125,-0.7487999796867371,-0.3251000046730041,-4.739599704742432,0.8374264240264893,0.4842416048049927,-0.0002268928074045
5.383880126953125,-1.0640000104904177,-0.4172999858856201,-1.106899976730347,0.7909832000732422,-0.1239183768630027,0.009337511844933
5.403733154296875,-2.2532999515533447,0.5981000065803528,3.2030999660491943,1.190995216369629,-0.7586422562599182,0.160133957862854
5.423584716796875,-0.0368000008165836,2.3763999938964844,5.013199806213379,1.8439228534698489,-0.8513890504837036,0.3770434856414795
5.44343798828125,3.988099813461304,3.75879979133606,6.194699764251709,2.25257420539856,-0.3042283356189728,0.0910712778568267
5.463291015625,2.6521999835968018,6.218999862670898,10.40590000152588,2.411626100540161,0.9063320159912108,-0.1724385321140289
5.483142578125,-2.5246999263763428,7.243799686431885,15.227899551391602,2.050831794738769,1.4278188943862915,0.1707979142665863
5.50299560546875,-3.6201000213623047,5.708099842071533,17.250099182128906,1.1850261688232422,0.3524343371391296,0.4511327147483825
5.522848876953125,-3.4515998363494877,5.194499969482422,16.41390037536621,0.455024778842926,-0.955585241317749,0.521905779838562
5.542700439453125,0.0843999981880188,7.639699935913086,9.760700225830078,0.1320865154266357,-0.6884974837303162,0.4980646073818207
5.562553466796875,-0.150299996137619,8.253600120544434,4.466700077056885,-0.1772556453943252,0.7889237403869629,0.7505614161491394
5.582405029296875,0.5460000038146973,5.569900035858154,-1.208799958229065,-0.7973187565803528,1.8943629264831543,0.9850289225578308
5.602258056640625,0.0824999958276748,0.7525999546051025,-4.742599964141846,-2.249101161956787,1.1209027767181396,0.8176169395446777
5.622111328125,-0.0018999999156221,-1.99019992351532,-4.276199817657471,-3.284360647201538,-0.6338337659835815,0.7126702666282654
5.641964599609375,2.9261999130249023,-3.194700002670288,-4.212199687957764,-2.989016056060791,-1.256148338317871,0.5915444493293762
5.66181591796875,3.634999990463257,-2.1589999198913574,-5.477999687194824,-1.7352761030197144,-0.2343104481697082,0.1446528881788253
5.6816708984375,2.8155999183654785,-2.27810001373291,-6.46560001373291,-0.5579119324684143,0.6030112504959106,-0.0320093370974063
5.7015224609375,2.110100030899048,-2.99399995803833,-7.286200046539307,0.2600715160369873,0.311558723449707,-0.1718800216913223
5.72137548828125,2.227799892425537,-3.6482999324798575,-11.509200096130373,0.2941927015781402,-0.7650825381278992,-0.3736226260662079
5.74122705078125,-0.7692999839782715,-3.807999849319458,-14.937899589538574,-0.7459886074066162,-1.4610849618911743,-0.3316649198532104
5.761080078125,-0.892799973487854,-3.834199905395508,-11.69509983062744,-1.5548614263534546,-1.4142926931381226,0.1812698990106582
5.780933349609375,0.7804999947547913,-5.213500022888184,-7.183499813079834,-1.3981658220291138,-0.5023232102394104,0.4938758313655853
5.800784912109375,2.691200017929077,-6.407899856567383,-3.3705999851226807,-0.5543340444564819,0.2311514019966125,0.1926319897174835
5.820637939453125,3.1103999614715576,-6.108799934387207,-3.59879994392395,0.3584382534027099,0.2623055279254913,-0.4594055712223053
5.840490966796875,0.316100001335144,-4.903599739074707,-6.586299896240234,0.8508654832839966,0.377270370721817,-0.9738762378692628
5.8603427734375,-1.2415999174118042,-2.858599901199341,-8.34060001373291,0.9979268908500672,0.9383588433265686,-0.8867843151092529
5.88019580078125,-0.9169999957084656,-2.6396000385284424,-8.482600212097168,0.7053224444389343,1.3058727979660034,-0.8049458265304565
5.900048828125,-1.0120999813079834,-2.4407999515533447,-6.75629997253418,0.271224170923233,0.9761452078819276,-0.8418595790863037
5.91990185546875,-1.2900999784469604,-2.473199844360352,-2.872799873352051,0.3033033311367035,0.3352603018283844,-0.844913899898529
5.939753662109375,-2.750200033187866,-2.0371999740600586,-2.4027998447418213,0.8680744171142578,-0.0936194583773613,-0.750526487827301
5.959606689453125,-1.7524999380111694,-0.9746999740600586,-5.321700096130371,1.4361441135406494,0.0962898135185241,-0.3549650609493255
5.979459716796875,0.854699969291687,-1.524899959564209,-6.988100051879883,1.1513588428497314,0.2085842937231063,-0.3243519961833954
5.999311279296875,1.184999942779541,-1.1891000270843506,-2.827999830245972,0.742497980594635,0.0199840199202299,-0.765675961971283
6.019164306640625,-1.768799901008606,1.6679999828338623,5.65749979019165,1.135930061340332,-0.1785820871591568,-0.9594249129295348
6.039017578125,-2.132699966430664,5.103300094604492,6.2820000648498535,1.9400731325149536,-0.7289193272590637,-0.4899488389492035
6.05887060546875,1.7034000158309937,8.218199729919434,-0.5996999740600586,1.1203792095184326,-0.9183224439620972,0.0978431552648544
6.07872216796875,2.7488999366760254,7.267899990081787,-1.9822999238967896,-0.995204210281372,-0.5599365234375,0.2629338502883911
6.0985751953125,-1.3528000116348269,5.444299697875977,10.583199501037598,-2.888031244277954,0.8174424171447754,0.6356314420700073
6.1184287109375,-0.8603000044822693,0.612500011920929,21.850099563598636,-3.1250295639038086,0.4636816084384918,0.7620630860328674
6.138280029296875,1.7667999267578125,-1.2603999376296997,25.74489974975586,-1.7830283641815186,-0.9313774704933168,-0.0670031905174255
6.15813330078125,-1.952799916267395,2.3417999744415283,14.06149959564209,-0.2506816387176513,-0.6177767515182495,-0.679701030254364
6.177986328125,-4.754899978637695,5.158999919891357,4.287499904632568,0.2001020014286041,0.5282413363456726,-0.5154655575752258
6.197839599609375,-4.6682000160217285,4.2754998207092285,-2.6243999004364014,-0.6815336346626282,-0.1070759519934654,-0.1509709805250167
6.217691162109375,-1.4292999505996704,1.8398000001907349,-1.669399976730347,-1.6282525062561035,-1.0855250358581543,0.078086033463478
6.23754248046875,1.6437000036239624,-0.0430999994277954,1.6405999660491943,-1.1531389951705933,-1.0393260717391968,-0.1143714264035224
6.257395751953125,2.333899974822998,-0.3116999864578247,0.2500999867916107,-0.0101927230134606,-0.1025904566049575,-0.4628264009952545
6.2772490234375,0.3455999791622162,0.437199980020523,-3.114499807357788,0.8238128423690796,0.8367282748222351,-0.5169490575790405
6.29710205078125,-0.7595999836921692,0.3084000051021576,-5.582799911499023,0.8547226190567017,0.856642484664917,-0.2835461795330047
6.31695361328125,-1.3381999731063845,-0.8351999521255493,-3.757499933242798,0.3670427501201629,-0.0397411473095417,-0.0866555944085121
6.336806640625,-0.3190000057220459,-2.107100009918213,-0.8082999587059021,0.2589544951915741,-0.7557973861694336,-0.0601091384887695
6.356659912109375,0.7549999952316284,-2.202299833297729,0.0469999983906745,0.6743777394294739,-0.4979075193405151,-0.0679631233215332
6.376511474609375,1.3274999856948853,-2.529099941253662,-0.189300000667572,1.3201844692230225,0.1237263903021812,-0.1414065808057785
6.396364501953125,0.4193999767303467,-1.2437000274658203,-3.0436999797821045,1.503042697906494,0.2549053430557251,-0.0974591821432113
6.416216064453125,-0.6941999793052673,0.492499977350235,-5.855000019073486,0.7829896211624146,-0.0377689264714717,0.1869596689939499
6.43607080078125,-0.1781999915838241,0.7856999635696411,-5.010299682617188,-0.1712168008089065,-0.3604279458522796,0.458969235420227
6.455923828125,0.5509999990463257,0.0665999948978424,-1.7527999877929688,-0.7066314220428467,-0.2882411181926727,0.5924345850944519
6.475775390625,0.9085999727249146,-0.5781999826431274,1.8895999193191528,-0.661148190498352,0.2467720955610275,0.5837079286575317
6.49562841796875,0.3127000033855438,-0.748699963092804,4.333799839019775,-0.2499311417341232,0.6783920526504517,0.476771593093872
6.515481689453125,-0.0888999998569488,-0.6281999945640564,4.0605998039245605,0.0374198593199253,0.4620759189128876,0.3607595562934875
6.535333251953125,0.1186999976634979,-0.293500006198883,2.3011999130249023,-0.0392000935971736,-0.1155407950282096,0.2974913716316223
6.555184814453125,0.6121000051498413,-0.4644999802112579,1.9144999980926516,0.0428129248321056,-0.1055924221873283,0.2878397107124328
6.575039306640625,1.4609999656677246,-0.5809999704360962,0.7013999819755554,0.2905449569225311,0.2299645841121673,0.1339714676141739
6.594890869140625,0.79339998960495,0.044099997729063,-0.4101999998092651,0.2842268645763397,0.3980397880077362,-0.0570199079811573
6.61474267578125,-0.4263999760150909,0.7008000016212463,-0.3244999945163727,0.149208202958107,0.163415178656578,0.0079412478953599
6.634595703125,-0.8792999982833862,0.8611999750137329,0.1895999908447265,-0.0730420276522636,-0.3284186124801636,0.1469741761684417
6.65444873046875,0.2070999890565872,0.4711999893188476,0.3574000000953674,0.0389382950961589,-0.3294658064842224,0.2735803723335266
6.674302001953125,1.0859999656677246,-0.1252000033855438,-0.3470000028610229,0.1884257495403289,-0.113306775689125,0.2286381274461746
6.6941552734375,0.9964999556541444,-0.2078999876976013,-0.5859000086784363,0.304629772901535,0.1470789015293121,0.1432391703128814
6.7140068359375,0.4695999920368194,0.0423999987542629,-1.4017999172210691,0.4041833579540252,0.223332330584526,0.1003040745854377
6.73385986328125,-0.1563999950885772,0.3994999825954437,-2.470700025558472,0.2143787890672683,0.142314150929451,0.1087863743305206
6.753712890625,-0.3682999908924103,0.5400999784469604,-1.549299955368042,-0.067736230790615,0.0161792021244764,0.1517214775085449
6.773566162109375,0.1005999967455864,0.2372999936342239,-0.152999997138977,-0.089709922671318,0.0502480305731296,0.1621061861515045
6.793417724609375,0.3392999768257141,0.0264999996870756,0.0154999997466802,-0.0213279239833354,0.1402372121810913,0.1436405926942825
6.813270751953125,0.281499981880188,-0.0195000004023313,-0.1033999994397163,-0.0890117883682251,0.0707207396626472,0.1396961510181427
6.833122314453125,0.4962999820709228,-0.0732999965548515,0.4672999978065491,-0.195703774690628,-0.0794124826788902,0.1206022500991821
6.852975341796875,0.5200999975204468,-0.1476999968290329,1.253499984741211,-0.202231302857399,-0.1621585339307785,0.0782256573438644
6.87282861328125,0.6313999891281128,-0.2400999963283538,1.7740999460220337,-0.0126187307760119,-0.0675442442297935,0.0238411966711282
6.89268017578125,0.6168000102043152,-0.1692000031471252,0.9587000012397766,0.2314132004976272,0.0947539210319519,-0.0676315054297447
6.912533203125,0.1680999994277954,0.0553999990224838,-0.5990999937057495,0.2916968762874603,0.1960877478122711,-0.1081929579377174
6.93238623046875,0.064300000667572,-0.0143999997526407,-1.1603000164031982,0.1559800803661346,0.1505695581436157,-0.0741415843367576
6.952238037109375,-0.1190999969840049,-0.0606999993324279,-0.8315999507904053,0.0280823484063148,0.0641583055257797,-0.0492706447839736
6.972091064453125,0.0037999998312443,-0.0163000002503395,1.0835000276565552,0.2332632541656494,0.1805368512868881,-0.0243647955358028
6.991944091796875,-0.4828999936580658,0.031700000166893,-1.5417999029159546,0.1903456002473831,0.1485624313354492,-0.0970228537917137
7.03164892578125,-0.2540000081062317,-0.0850999951362609,1.3752999305725098,-0.2543642818927765,-0.1364847421646118,0.0239284634590148
