seconds_elapsed,accel_x,accel_y,accel_z,gyro_x,gyro_y,gyro_z
0.188610595703125,0.047664001584053,-0.1442600041627884,1.8286279439926147,0.038087498396635,0.1209999993443489,0.0472999997437
0.223053466796875,0.047664001584053,-0.1442600041627884,1.8286279439926147,-0.2037750035524368,-0.0548624992370605,0.1071124970912933
0.25749658203125,0.047664001584053,-0.1442600041627884,1.8286279439926147,-0.1903000026941299,0.0123749999329447,0.1181124970316886
0.291939453125,0.047664001584053,-0.1442600041627884,1.8286279439926147,0.0393249988555908,0.0892374962568283,0.0252999998629093
0.343604248046875,0.3889060020446777,-0.4085310101509094,-0.9676079750061036,-0.1622499972581863,-0.0915749967098236,0.0620125010609626
0.395268798828125,1.0077840089797974,-0.5002059936523438,-0.7893909811973572,-0.0389125011861324,0.2297624945640564,-0.0967999994754791
0.429712158203125,-0.118147000670433,-0.5757399797439575,-1.3696459531784058,-0.3075875043869018,0.3433375060558319,-0.0772750005125999
0.464155029296875,-0.39860400557518,-1.3368940353393557,0.2439520061016082,-0.267300009727478,0.1319999992847442,-0.0222750008106231
0.49859814453125,-0.813962996006012,-1.7428020238876345,-0.7096539735794067,0.2261874973773956,-0.0133375003933906,-0.0932250022888183
0.533041259765625,-1.3770190477371216,-1.65461003780365,-2.649945020675659,0.272662490606308,-0.1233374997973442,0.0240624994039535
0.567484375,-1.6288609504699707,-1.2103910446166992,1.3861260414123535,0.1993750035762787,0.2872374951839447,0.3881624937057495
0.60192724609375,-0.380634993314743,0.2949669957160949,6.929183006286621,0.9201499819755554,-0.3517250120639801,0.1280124932527542
0.636370361328125,-3.823827981948853,2.3612349033355717,7.161886215209961,1.385587453842163,-0.9846374988555908,0.2648249864578247
0.6708134765625,-1.2513469457626345,3.755053997039795,7.180788040161133,1.5322999954223633,-0.6375874876976013,0.631262481212616
0.705256591796875,-0.1433500051498413,4.426325798034668,11.113823890686035,0.9788625240325928,0.2077624946832656,-0.0332750007510185
0.73969970703125,-3.2595670223236084,6.186267852783203,15.115181922912598,2.601224899291992,0.416762501001358,-0.8140000104904175
0.774142822265625,-3.527399063110352,8.847860336303711,4.436991214752197,1.9487874507904053,0.2359499931335449,-0.9690999984741212
0.8085859375,-4.311092853546143,4.002642154693604,-0.0230369996279478,0.2261874973773956,1.5224000215530396,-0.8029999732971191
0.843029296875,-4.612887859344482,-1.1533149480819702,0.6947699785232544,-0.5666375160217285,1.8595499992370603,0.2965874969959259
0.87747216796875,-1.1305129528045654,-6.528441905975342,-2.5279541015625,0.1528999954462051,0.7771499752998352,1.22017502784729
0.911915283203125,6.4727091789245605,-8.484273910522461,-9.087477684020996,-0.1622499972581863,-0.6485875248908997,0.5029749870300293
0.9463583984375,3.5121400356292725,-7.151591777801514,-8.387582778930664,-0.5531625151634216,-0.4775374829769134,-0.2165624946355819
0.980801513671875,1.6165980100631714,-6.243459224700928,-7.312311172485352,-0.4883999824523926,0.1711875051259994,0.5164499878883362
1.01524462890625,3.140547037124634,-6.224528789520264,-6.283370018005371,-0.5531625151634216,0.1344749927520752,0.4981625080108642
1.049687744140625,1.1458770036697388,-5.833675861358643,-4.48105001449585,-0.2600125074386596,0.1051874980330467,0.346637487411499
1.084130859375,-0.0077329999767243,-4.75387716293335,-4.956392765045166,-0.1744875013828277,0.1942874938249588,0.4456374943256378
1.11857373046875,-0.6237199902534485,-4.268301010131836,-4.997647762298584,-0.0669625028967857,-0.1891999989748001,0.2256374955177307
1.15301708984375,-1.5542550086975098,-4.475701808929443,-5.622672080993652,-0.0327249988913536,-0.1526249945163726,0.2733500003814697
1.1874599609375,-2.9499740600585938,-4.575915813446045,-6.164744853973389,0.1773750036954879,0.2162874937057495,0.7217375040054321
1.2219033203125,-0.734978973865509,-3.952177047729492,-6.627248764038086,-0.1390125006437301,-0.7598249912261963,0.565262496471405
1.2563466796875,0.6391410231590271,-0.8821939826011658,2.026051998138428,0.4046624898910522,-1.818987488746643,-0.1762749999761581
1.29078955078125,0.6701769828796387,5.308934211730957,4.928925037384033,1.9610249996185305,-1.010212540626526,0.3075875043869018
1.325232666015625,3.0734200477600098,5.406338214874268,1.2565269470214844,-1.4499374628067017,-0.052387498319149,0.565262496471405
1.35967578125,1.058859944343567,3.929986953735352,12.857921600341797,-0.862262487411499,-0.7915874719619751,-0.0650374963879585
1.394118896484375,1.4228830337524414,5.746777057647705,5.377656936645508,-0.6484500169754028,0.7356249690055847,-0.2678500115871429
1.428561767578125,-2.163501977920532,3.961827039718628,1.842000961303711,-2.678912401199341,1.8680750131607056,0.1193500012159347
1.46300537109375,-3.269486904144287,0.1054859980940818,6.791234016418457,-3.0149624347686768,0.4057624936103821,0.1095874980092048
1.497448486328125,-2.099637031555176,-0.8768630027770996,4.2826337814331055,-1.847037434577942,0.2237125039100647,0.3051125109195709
1.531891357421875,0.615667998790741,-1.4069679975509644,0.2773900032043457,-1.145787477493286,0.2872374951839447,-0.1077999994158744
1.566334716796875,-0.3732210099697113,-1.308722972869873,0.8174489736557007,-0.1463000029325485,-0.2234375029802322,-0.768762469291687
1.600777587890625,-1.3208420276641846,-1.0544220209121704,-1.4711040258407593,0.7613375186920166,-0.3724874854087829,-0.768762469291687
1.635220703125,-2.5607190132141118,-0.0117429997771978,-3.197959899902344,1.219487547874451,-0.2699125111103058,-0.5086125135421753
1.669663818359375,-0.1194500029087066,0.6627579927444458,-2.345722913742065,0.6440500020980835,-0.9833999872207642,-0.0516999997198581
1.70410693359375,1.3317129611968994,0.5801209807395935,4.851852893829346,1.3257750272750854,-0.9858750104904176,-0.285037487745285
1.73855029296875,2.9458370208740234,3.078541040420532,8.861437797546387,1.9379249811172483,1.102062463760376,-0.7565249800682068
1.7729931640625,-0.4035870134830475,5.343610763549805,10.618408203125,0.8151000142097473,0.8552500009536743,-0.7211874723434448
1.8074365234375,-2.021899938583374,4.534130096435547,18.081308364868164,0.4852375090122223,0.2822875082492828,-0.8530499935150146
1.841879638671875,-3.540091037750244,4.686129093170166,6.09965181350708,0.5402374863624573,0.7869125008583069,-0.4059000015258789
1.87632275390625,-1.4791120290756226,0.9743250012397766,-3.1174259185791016,-0.9917874932289124,0.8442500233650208,0.219587504863739
1.910765869140625,-0.890192985534668,-3.967581033706665,-6.449363231658936,-1.877562522888184,0.3409999907016754,0.4309250116348266
1.945208984375,2.2834980487823486,-5.5113677978515625,-5.109004974365234,-1.1188374757766724,-1.2362624406814575,-0.2263250052928924
1.979652099609375,-0.4221200048923492,-3.5036869049072266,-7.554350852966309,0.6098124980926514,-0.4152500033378601,-0.658762514591217
2.014095458984375,-1.8845069408416748,-3.31728196144104,-14.100555419921877,0.2886124849319458,0.9677249789237976,-0.0845625028014183
2.04853857421875,-0.8363190293312073,-3.544074058532715,-12.819865226745604,-1.7615125179290771,0.2615250051021576,0.3441624939441681
2.082981689453125,-0.3329330086708069,-3.847666025161743,-3.4389429092407227,-1.9300874471664429,-0.2039124965667724,0.2880625128746032
2.117425048828125,-0.6123589873313904,-3.1801741123199463,-0.6016330122947693,0.1297999918460846,0.7929624915122986,0.3454000055789947
2.1518681640625,0.0867369994521141,-2.884222984313965,-6.055817127227783,0.9629124999046326,0.6659125089645386,-0.0320375002920627
2.18631103515625,-1.1888539791107178,-3.320125102996826,-7.419896125793457,0.4914250075817108,0.4362874925136566,-0.189750000834465
2.22075439453125,-1.3053289651870728,-3.400207996368408,-5.017437934875488,0.5609999895095825,-0.0988624989986419,-0.0980374962091445
2.255197265625,0.4585880041122436,-1.417654037475586,-2.9141600131988525,1.2304874658584597,-1.0884499549865725,-0.3191374838352203
2.289640625,1.8366429805755613,0.3978970050811767,0.8608919978141785,1.0839124917984009,-1.359737515449524,-0.1933249980211258
2.324083984375,2.558691024780273,3.57187294960022,8.371756553649902,1.457774996757507,-0.8709250092506409,-0.9031000137329102
2.35852685546875,-1.722859025001526,5.657004833221436,8.264001846313477,-0.2734875082969665,-0.0048124999739229,-0.5439500212669373
2.39297021484375,-3.7165699005126953,5.513286113739014,6.888874053955078,-1.0907875299453735,0.0111375004053115,0.0827749967575073
2.444634765625,-1.5006589889526367,1.9348039627075195,9.1873197555542,-2.5995750427246094,0.3420999944210052,0.5665000081062317
2.479078125,-1.0658639669418335,1.504544019699097,5.63192892074585,-1.355887532234192,0.017187500372529,0.2037750035524368
2.51352099609375,-0.487415999174118,0.722836971282959,-3.1415719985961914,-1.2544125318527222,0.4166249930858612,0.3331624865531921
2.547964111328125,0.5664989948272705,-0.630079984664917,-1.1038600206375122,-1.2128875255584717,0.5803874731063843,0.0852499976754188
2.58240771484375,-0.3613080084323883,-0.7646840214729309,-0.5478839874267578,0.5427125096321106,-0.1331000030040741,-0.2715624868869781
2.6168505859375,-1.2393759489059448,-0.2677080035209656,-4.548200130462647,1.0643874406814575,-0.4042499959468841,0.1035374999046325
2.651293701171875,0.6422880291938782,-0.9553940296173096,-4.978567123413086,0.9849125146865844,-0.7561125159263611,0.2513499855995178
2.68573681640625,-0.0959670022130012,-2.302642107009888,1.645671010017395,1.621399998664856,-0.9418749809265136,-0.0882750004529953
2.72018017578125,-0.9508609771728516,-1.7670739889144895,-2.309004068374634,2.4131250381469727,-0.5081999897956848,0.1683000028133392
2.754623046875,0.8000310063362122,0.6492390036582947,-0.4296489953994751,1.105912446975708,0.1209999993443489,-0.0382249988615512
2.78906640625,-2.077765941619873,4.193412780761719,12.119484901428224,0.9886249899864196,2.3726999759674072,0.5116375088691711
2.823509765625,-4.673666954040527,3.9960029125213614,13.394487380981444,0.3361875116825104,0.4265249967575073,0.5396875143051147
2.85795263671875,-1.047773003578186,5.830849170684815,14.38983154296875,0.198137491941452,-0.8490625023841858,-0.1860374957323074
2.89239599609375,-1.2879149913787842,4.870039939880371,6.814614772796631,0.0967999994754791,1.2120624780654907,-0.5867124795913696
2.926839111328125,-2.784203052520752,1.3748459815979004,-1.937952995300293,-0.6021124720573425,0.7844374775886536,-0.2947999835014343
2.9612822265625,-1.6484500169754028,-1.5898350477218628,-7.378952980041504,-1.998425006866455,-0.4042499959468841,0.0107249999418854
2.9957255859375,0.1955620050430297,-2.703176975250244,-6.449550151824951,-2.418762445449829,-0.5105375051498413,0.3491125106811523
3.03016845703125,1.18328595161438,-2.37221908569336,-4.219666957855225,-1.3143625259399414,-0.1293874979019165,0.5103999972343445
3.06461181640625,2.5958669185638428,-2.080733060836792,-6.5445098876953125,-0.2685374915599823,-0.3041499853134155,0.1903000026941299
3.099054931640625,0.7562990188598633,-1.9186240434646609,-8.229533195495605,-0.3833499848842621,0.5461499691009521,0.2452999949455261
3.133498046875,0.3861089944839477,-2.555538892745972,-5.38436222076416,-0.8892124891281128,0.7526749968528748,0.2305874973535537
3.167941162109375,0.582518994808197,-2.262578010559082,-0.7932299971580505,0.0283249989151954,-0.2296250015497207,-0.523187518119812
3.20238427734375,-1.8636250495910645,-2.282845020294189,-3.626133918762207,1.4052499532699585,-0.4067249894142151,-0.4841375052928924
3.23682763671875,-1.2589770555496216,-2.6715900897979736,-7.268039226531982,1.6984000205993652,-0.1806749999523162,-0.2666124999523163
3.2712705078125,-1.1980730295181274,-2.5586040019989014,-7.361001014709473,1.389299988746643,-0.1196250021457672,-0.113987497985363
3.3057138671875,-1.157109022140503,-2.130297899246216,-6.2188239097595215,0.7808625102043152,-0.2626250088214874,0.0094875004142522
3.340156982421875,0.1860280036926269,-1.1226929426193235,2.145906925201416,0.8420500159263611,-0.4982999861240387,-0.2947999835014343
3.37460009765625,-0.7095879912376404,2.1993908882141118,6.061898231506348,1.8779749870300293,0.9200124740600586,-0.0430375002324581
3.409043212890625,-0.9833570122718812,4.2308220863342285,3.5714271068573,0.3789499998092651,0.4778124988079071,-0.1457500010728836
3.443486328125,-5.009201049804688,5.149077892303467,5.300944805145264,-1.3473625183105469,-0.1123374998569488,0.1303499937057495
3.477929443359375,-2.4811129570007324,3.22763991355896,7.565964221954346,-1.8591375350952148,-0.1746249943971634,0.8670749664306641
3.51237255859375,0.1981319934129715,2.384804964065552,8.257637977600098,-1.1310750246047974,0.7343875169754028,0.4699749946594238
3.546815673828125,-1.6140949726104736,0.8339840173721313,2.0443480014801025,-0.8109750151634216,-0.2051499933004379,0.3014000058174133
3.5812587890625,0.2402330040931701,-0.0474379993975162,-1.694694995880127,-0.7523999810218811,-0.691349983215332,0.2366375029087066
3.615701904296875,0.5232629776000977,-1.4213210344314575,-3.6600849628448486,-0.7939249873161316,-0.0976250022649765,0.2268749922513961
3.65014501953125,0.7002480030059814,-2.7257399559021,-2.5953800678253174,-0.2245374917984008,-0.3359124958515167,-0.1445125043392181
3.684587890625,-0.4845359921455383,-2.713531970977783,-4.128110885620117,0.7588624954223633,-0.5704874992370605,-0.359562486410141
3.719031494140625,-0.6876819729804993,-2.0805439949035645,-6.373753070831299,0.6930000185966492,-0.4030124843120575,-0.2520374953746795
3.753474609375,-0.3970380127429962,-1.6042250394821167,-3.681153059005737,0.5365250110626221,-0.2784374952316284,-0.1835625022649765
3.787917724609375,-0.8937069773674011,-0.0499069988727569,1.4111930131912231,1.372249960899353,-0.4311999976634979,-0.1798499971628189
3.82236083984375,-1.5022720098495483,3.87399697303772,0.7940880060195923,0.9763875007629396,0.2187625020742416,0.1890625059604644
3.8568037109375,-2.376983880996704,4.989339828491211,8.64645004272461,-0.0987249985337257,1.2243000268936155,0.6862624883651733
3.8912470703125,-2.911807060241699,4.747776031494141,13.272719383239746,-0.2832500040531158,1.114300012588501,-0.0064624999649822
3.925690185546875,-6.528056144714356,4.984132766723633,11.764650344848633,0.1358499974012375,1.497925043106079,-0.173799991607666
3.96013330078125,-5.216105937957764,3.123922109603882,-3.9811620712280273,-1.3131250143051147,1.7385499477386477,0.4003999829292297
3.99457666015625,0.2709159851074219,-2.462480068206787,5.573635101318359,-4.003312587738037,1.4832124710083008,0.3454000055789947
4.02901953125,-0.4593499898910522,-2.6320149898529053,10.067061424255373,0.0613249987363815,0.4875749945640564,-0.2520374953746795
4.063462646484375,1.961796998977661,-1.2875850200653076,-8.947787284851074,0.8541499972343445,-0.6058250069618225,-0.0235124994069337
4.097905517578125,4.548861980438232,-1.1211990118026731,-8.214522361755371,-0.5031124949455261,-1.1629749536514282,-0.2556124925613403
4.132348876953125,2.0111238956451416,-1.6732490062713623,-4.682797908782959,0.1297999918460846,-0.6693499684333801,-0.4241875112056732
4.1667919921875,0.0388999991118907,-2.0055480003356934,-7.28680419921875,0.5134249925613403,0.1539999991655349,0.0314874984323978
4.20123486328125,0.3444580137729645,-2.781018018722534,-8.781744003295898,-0.1854874938726425,-0.0255750007927417,0.2891624867916107
4.23567822265625,0.9890599846839904,-2.857429981231689,-5.818026065826416,-0.3968249857425689,-0.6767749786376953,0.1303499937057495
4.270121337890625,-0.3527109920978546,-2.72060489654541,-4.243621826171875,0.593999981880188,-0.3982000052928924,0.2061125040054321
4.304564453125,-0.4640890061855316,-2.561084985733032,-7.401279926300049,0.9886249899864196,-0.4104374945163727,0.0875874981284141
4.33900732421875,-0.5450509786605835,-2.3171489238739014,-5.830447196960449,0.8933374881744385,-0.4311999976634979,0.0803000032901763
4.373450439453125,-1.9298269748687744,-1.2002500295639038,-1.3502899408340454,1.3600125312805176,-0.2246749997138977,0.0863500013947486
4.407893798828125,1.897392988204956,1.8288120031356807,3.865793943405152,1.3245375156402588,-0.7732999920845032,0.0595375001430511
4.442336669921875,-0.4265570044517517,3.9145469665527344,3.922105073928833,0.5988125205039978,0.1002374961972236,0.2586374878883362
4.47677978515625,-1.0582400560379028,3.32590389251709,11.955291748046877,-0.9050250053405762,0.9542499780654908,0.1487749963998794
4.511222900390625,-2.069531917572021,4.293885231018066,13.269923210144045,-0.3895374834537506,0.7979124784469604,-0.4768500030040741
4.545666015625,-5.196925163269043,3.045027017593384,9.328536987304688,-1.0833624601364136,0.2272875010967254,0.0302499998360872
4.58010888671875,-2.2087879180908203,1.3901879787445068,3.762439012527466,-0.8855000138282776,-0.7207750082015991,0.2855874896049499
4.614552001953125,1.5652450323104858,0.4430620074272156,0.0206889994442462,-0.2172500044107437,-0.4972000122070312,0.0558249987661838
4.6489951171875,0.99406898021698,0.265744000673294,-5.2914137840271,-0.457874983549118,0.4081000089645386,-0.0919874981045723
4.683438232421875,1.242063045501709,-0.9953920245170592,-3.4824581146240234,-0.892787516117096,0.0061874999664723,0.0314874984323978
4.71788134765625,1.3512879610061646,-1.5811959505081177,-0.6752719879150391,0.2689499855041504,-0.2539624869823456,-0.3619000017642975
4.752324462890625,-1.2006779909133911,-1.6006890535354614,-4.207941055297852,1.140012502670288,-0.1696749925613403,0.0644875019788742
4.786767578125,-0.0846540033817291,-1.8109229803085327,-4.284165859222412,1.1474374532699585,-0.4299624860286712,-0.0417999997735023
4.8212109375,-3.3170011043548584,-1.0350910425186155,1.23431396484375,2.4179375171661377,-0.3627249896526336,0.101062498986721
4.85565380859375,1.0606240034103394,0.9331700205802916,0.2569650113582611,2.387412548065185,-0.4140124917030334,0.2123000025749206
4.890096923828125,-1.0220730304718018,4.321697235107422,8.59987735748291,1.6238750219345093,0.5193374752998352,0.1853500008583068
4.9245400390625,-1.1701539754867554,5.342843055725098,10.835437774658203,-0.2380124926567077,-0.3102000057697296,0.3429250121116638
4.958983154296875,0.503591001033783,4.63906717300415,15.207463264465332,-0.8830249905586243,-0.6058250069618225,-0.3826625049114227
4.993426025390625,-1.9477490186691284,5.485946178436279,5.24055814743042,-0.9307374954223632,0.9212499856948853,-0.5794249773025513
5.027869140625,-5.620935916900635,2.026619911193848,-5.116069793701172,-2.5115749835968018,-0.0585750006139278,0.1193500012159347
5.06231201171875,-0.0883330032229423,-0.3299129903316498,-0.5375490188598633,-2.550762414932251,-1.731124997138977,0.0790624991059303
5.09675537109375,-2.213078022003174,-1.636860966682434,-2.209002017974853,-0.5691124796867371,-1.6039375066757202,0.0350624993443489
5.1311982421875,-0.6262410283088684,-2.8689138889312744,-8.175134658813477,0.8443874716758728,-1.3095500469207764,-0.039462499320507
5.1656416015625,-0.8336870074272156,-3.143038034439087,-10.193653106689451,0.4705249965190887,-0.7646374702453613,-0.1347499936819076
5.20008447265625,-1.288877010345459,-4.008482933044434,-6.016602993011475,0.7601000070571899,0.3067624866962433,0.2648249864578247
5.234527587890625,0.632066011428833,-5.153540134429932,-6.873899936676025,1.3648250102996826,1.2670625448226929,0.0912999957799911
5.268970703125,-1.938130021095276,-6.760739803314209,-8.613170623779297,0.951912522315979,0.8882499933242798,-0.1077999994158744
5.30341357421875,-2.255506992340088,-6.8335280418396,-8.196297645568848,0.6380000114440918,0.3910500109195709,0.1438249945640564
5.337856689453125,-0.7213749885559082,-6.258600234985352,-8.533883094787598,0.4620000123977661,0.5975750088691711,0.1108250021934509
5.372300048828125,-1.0357470512390137,-5.211441993713379,-6.228631973266602,0.198137491941452,0.0892374962568283,0.0217249989509582
5.406742919921875,0.6720060110092163,-2.6158270835876465,-1.4879659414291382,0.256850004196167,-0.2674374878406524,-0.082225002348423
5.44118603515625,3.108999013900757,2.923348903656006,5.024543762207031,0.9128624796867372,0.3715249896049499,-0.926337480545044
5.47562890625,-2.7039999961853027,6.563199996948242,2.7629940509796143,-0.1879625022411346,0.5535749793052673,-0.0944624990224838
5.510072021484375,-1.3854169845581057,4.637475967407227,12.37231159210205,-2.022900104522705,0.4496249854564667,0.2525874972343445
5.544515380859375,-1.1422230005264282,3.714653015136719,14.72985553741455,-0.3772999942302704,-0.555774986743927,-0.2910875082015991
5.5789580078125,-1.4787869453430176,3.970025062561035,3.643721103668213,-0.8061624765396118,0.1931875050067901,-0.3253250122070312
5.613401123046875,-1.3748250007629397,0.9720529913902284,4.099792957305908,-1.955662488937378,0.6671500205993652,-0.0186999998986721
5.647843994140625,1.68471097946167,0.9060050249099731,5.962570190429688,-1.0920250415802002,0.294524997472763,-0.6282374858856201
5.682287109375,-2.296144962310791,1.844627022743225,1.0904020071029663,-0.3247750103473663,0.6085749864578247,-0.3143250048160553
5.716730224609375,0.6329240202903748,0.2863529920578003,-1.0774580240249634,-0.7889750003814697,-0.0633874982595443,0.2000624984502792
5.75117333984375,1.214226007461548,-1.0069199800491333,0.695127010345459,0.2446125000715255,0.1307625025510788,-0.3607999980449676
5.7856162109375,1.2283109426498413,-1.1409200429916382,-1.6983250379562378,1.5908750295639038,1.197350025177002,-0.4463250041007995
5.82005908203125,-0.3817160129547119,-0.785444974899292,-6.401198863983154,1.6543999910354614,0.6011499762535095,-0.4096125066280365
5.85450244140625,-0.3363650143146515,-0.5560169816017151,-4.497129917144775,0.7455250024795532,-0.4079625010490417,-0.0186999998986721
5.8889453125,-1.528020977973938,-1.0285890102386477,2.075434923171997,1.2744874954223633,0.2762374877929687,0.477400004863739
5.923388427734375,-1.4960349798202517,1.3060020208358765,0.9424700140953064,1.491874933242798,-1.552649974822998,0.1805374920368194
5.957831298828125,-0.1170300021767616,4.432593822479248,9.959468841552734,0.1028499975800514,-2.056037425994873,0.2806375026702881
5.992274658203125,2.2075788974761963,4.015873908996582,20.504507064819336,1.7716875076293943,1.159537434577942,-0.0882750004529953
6.02671728515625,-1.943871021270752,6.09360408782959,11.473115921020508,1.708162546157837,0.190712496638298,-1.0461000204086304
6.06116064453125,-6.208115100860596,2.553400039672852,5.581789016723633,-0.5691124796867371,0.1931875050067901,0.5054500102996826
6.095603271484375,1.3528239727020264,-3.535192012786865,1.3961230516433716,-1.0614999532699585,-0.2516250014305115,-0.1872749924659729
6.130046630859375,-1.0659559965133667,-4.2025251388549805,-6.053437232971191,-0.113437496125698,-0.5607249736785889,-0.5537124872207642
6.16448974609375,-1.286681056022644,-4.197113990783691,-13.609092712402344,-1.893375039100647,-2.222137451171875,0.1816374957561493
6.198932373046875,2.089787006378174,-3.5184459686279297,-4.267083168029785,-1.6307499408721924,-1.3425500392913818,-0.1958000063896179
6.23337548828125,-0.9361010193824768,-2.6545250415802,-5.481534957885742,0.1834249943494796,0.1504250019788742,-0.7272375226020813
6.267818359375,-2.882841110229492,-2.4864509105682373,-9.665763854980469,-0.4848249852657318,0.4020499885082245,-0.4046624898910522
6.302261474609375,-1.6777310371398926,-3.296426057815552,-3.0243771076202397,-0.394349992275238,0.443574994802475,-0.2520374953746795
6.336704345703125,-1.171789050102234,-3.514596939086914,-3.2879700660705566,1.043624997138977,0.4423374831676483,-0.4376625120639801
6.3711474609375,-1.6321899890899658,-3.3713250160217285,-9.350223541259766,1.0191500186920166,0.0917124971747398,-0.0442750006914138
6.405590576171875,-0.6215180158615112,-3.6929869651794434,-7.511766910552978,0.1504250019788742,-0.0903374999761581,0.1780624985694885
6.440033447265625,-3.760499000549317,-3.744009017944336,-3.167465925216675,0.8028625249862671,-0.7988749742507935,0.7290250062942505
6.4744765625,-0.5851659774780273,-3.5053539276123047,-4.122544765472412,0.2396624982357025,-2.196562528610229,0.8743624687194824
6.50891943359375,5.098165988922119,1.0681209564208984,3.417081117630005,0.5450500249862671,-1.7664624452590942,-0.8152375221252441
6.543362548828125,2.3600308895111084,4.932383060455322,3.580699920654297,-0.0840125009417533,0.3898124992847442,-0.9055749773979188
6.577805419921875,-0.6822360157966614,5.388451099395752,10.813765525817873,-0.4383499920368194,2.6500375270843506,-0.4511374831199646
6.61224853515625,-5.268486976623535,3.541102886199951,5.704987049102783,-2.317425012588501,-0.3944875001907348,0.2440624982118606
6.64669140625,0.5346919894218445,2.99554705619812,14.89818000793457,-1.7859874963760376,0.975012481212616,0.7045499682426453
6.681134521484375,-2.644596099853516,1.9007530212402344,6.33100700378418,-0.0254375003278255,1.796025037765503,-0.2190375030040741
6.71557763671875,-6.023595809936523,0.1235280036926269,-5.589066028594971,-1.3143625259399414,-0.9919250011444092,0.6935499906539917
6.7500205078125,0.8456540107727051,-0.9127860069274902,-4.370830059051514,-2.5165250301361084,-0.9601625204086304,1.1406999826431274
6.784463623046875,2.382308959960937,-2.531407117843628,2.057620048522949,-1.1873124837875366,0.6976749897003174,0.5469750165939331
6.818906494140625,0.5387309789657593,-2.056402921676636,-2.031873941421509,0.3068999946117401,-0.0598125010728836,-0.3558500111103058
6.853349365234375,0.5554350018501282,-0.317658007144928,-3.1717491149902344,0.8663874864578247,0.0464750006794929,-0.6209499835968018
6.88779248046875,0.3911679983139038,1.2735480070114136,-4.187882900238037,1.171774983406067,0.8589624762535095,-0.5781875252723694
6.9222353515625,-0.6343010067939758,1.4301949739456177,-1.7435439825057983,1.1571999788284302,0.817437469959259,-0.0614624992012977
6.95667822265625,-1.5057849884033203,1.208415985107422,-0.0804679989814758,0.8713374733924866,0.0599500015377998,0.3649249970912933
6.991121337890625,1.895331025123596,2.3089311122894287,7.686943054199219,0.5682874917984009,-0.8428750038146973,0.4919750094413757
7.025564453125,0.1805649995803833,3.0746920108795166,11.562822341918944,2.2310750484466557,0.2480500042438507,0.4223999977111816
7.06000732421875,-0.5461050271987915,3.602595090866089,7.491987228393555,1.214537501335144,-0.8391624689102173,0.1683000028133392
7.0944501953125,-1.0568950176239014,3.990679979324341,10.045589447021484,0.1308999955654144,-0.9503999948501588,-0.2910875082015991
7.12889306640625,-4.70704984664917,3.609930992126465,6.771186828613281,-0.3260124921798706,-0.0756250023841857,-0.4181374907493591
7.163336181640625,-6.710937976837158,-1.0839929580688477,-0.97468101978302,-1.5134625434875488,0.4448125064373016,0.5774999856948853
7.197779052734375,-1.7190159559249878,-5.079136848449707,-2.892324924468994,-2.889149904251098,1.0898250341415403,0.7412624955177307
7.23222216796875,-3.3330109119415283,-6.9473090171813965,-0.8037300109863281,-1.928849935531616,1.2913999557495115,0.8133124709129333
7.266664794921875,4.069255828857422,-4.64525318145752,-5.503838062286377,-0.5801125168800354,-0.2662000060081482,0.2440624982118606
7.301108154296875,0.5710039734840393,-0.9261199831962584,-6.411533832550049,0.5634750127792358,-0.5802500247955322,-0.3961375057697296
7.335551025390625,0.4698030054569244,-0.0855159983038902,-10.797743797302246,0.0148499999195337,0.2127124965190887,0.5897374749183655
7.369993896484375,2.3623859882354736,-0.7517139911651611,-7.015643119812012,-1.4707000255584717,-0.0695749968290329,0.0325874984264373
7.40443701171875,-1.1676199436187744,-1.5831630229949951,3.007606029510498,-0.1940124928951263,0.0159499999135732,-0.1885125041007995
7.4388798828125,-1.367318034172058,-2.199744939804077,-1.9577319622039795,2.019737482070923,0.222474992275238,-0.0430375002324581
7.473322998046875,-0.7953130006790161,-2.409226894378662,-8.467009544372559,1.6898750066757202,-0.3834874927997589,-0.1909874975681305
7.507765869140625,-1.5478579998016355,-2.3647680282592773,-5.323416233062744,1.3795374631881714,-0.691349983215332,-0.1847999989986419
7.542208740234375,-0.4144870042800903,-2.6203598976135254,-4.761303901672363,1.616587519645691,-0.5533000230789185,0.2366375029087066
7.576651611328125,1.271543025970459,-0.3928540050983429,-1.2884949445724487,1.987975001335144,-1.0689250230789185,-0.6551874876022339
7.6110947265625,-1.5249450206756592,3.7587969303131104,-1.7296969890594482,1.9292625188827517,-0.6645374894142151,-0.2752749919891357
7.645537353515625,2.2927849292755127,4.868965148925781,2.3503410816192627,-0.3968249857425689,1.8485499620437624,0.4382124841213226
7.67998046875,-2.9542601108551025,2.792612075805664,12.48781967163086,0.344712495803833,0.5033875107765198,-0.0980374962091445
7.714423583984375,-2.562443971633911,4.223761081695557,2.7154929637908936,-0.3907749950885772,-0.0438624992966651,0.0717749968171119
7.748866455078125,-2.184108018875122,1.884562969207764,4.660155773162842,-1.5074124336242676,1.54316246509552,0.4712125062942505
7.783309326171875,-1.0388699769973757,-0.382779985666275,2.7814059257507324,-1.241075038909912,0.4338124990463257,-0.0614624992012977
7.81775244140625,0.0771860033273696,-0.6201800107955933,-0.7277389764785767,-1.4926999807357788,-0.2919124960899353,0.1658249944448471
7.8521953125,0.6869450211524963,-1.4607479572296145,0.3265970051288605,-1.0895500183105469,0.4570499956607818,0.2440624982118606
7.88663818359375,1.3110109567642212,-1.413043975830078,-1.5574439764022827,-0.442062497138977,0.278712511062622,-0.0382249988615512
7.9210810546875,1.672693967819214,-0.0915059968829155,-4.364381790161133,-0.1366750001907348,-0.1331000030040741,-0.0639375001192092
7.95552392578125,1.8375760316848757,0.9327380061149596,-2.76175308227539,-0.1879625022411346,-0.3370124995708465,0.0290124993771314
7.98996728515625,0.4383119940757751,0.4439760148525238,3.333388090133667,1.355062484741211,0.0526624992489814,-0.182325005531311
8.02441015625,-0.8442980051040649,1.0352150201797483,-1.9865469932556152,1.4222999811172483,-0.7438749670982361,0.2769249975681305
8.05885302734375,0.0384159982204437,0.9296209812164308,8.174123764038086,0.7112874984741211,0.3165250122547149,0.1975875049829483
8.0932958984375,-4.5274271965026855,1.150230050086975,11.71292495727539,1.363587498664856,0.369049996137619,0.129112496972084
8.12773876953125,-3.717108964920044,1.2637050151824951,12.763113021850586,0.3557125031948089,-0.4592500030994415,-0.0785124972462654
8.162181640625,-2.7121639251708984,3.194753885269165,7.7240118980407715,0.4217124879360199,-0.1331000030040741,-0.4853749871253967
8.19662451171875,-2.831223964691162,2.8908228874206543,-3.460261106491089,-1.394937515258789,0.1736624985933303,0.3294500112533569
8.231067626953125,5.835290908813477,-1.6761709451675415,-4.393570899963379,-3.890974998474121,1.1705374717712402,0.7277874946594238
8.26551025390625,5.2165207862854,-2.1908459663391118,3.020845890045166,-2.7363874912261963,1.0410125255584717,-1.5885374546051023
8.299953369140624,-5.937952041625977,-0.9023619890213012,-1.965831995010376,-0.306487500667572,-0.5887749791145325,-1.6545374393463137
8.334396240234375,-4.227500915527344,-2.447796106338501,-9.318944931030272,-0.0914374962449073,0.0136124994605779,0.2488749921321869
8.368839111328125,0.9065189957618712,-2.6702539920806885,-7.940154075622559,-0.0939124971628189,-0.3370124995708465,0.3343999981880188
8.4032822265625,1.50484299659729,-3.3688089847564697,-6.5983710289001465,0.2128500044345855,-1.4243625402450562,0.1060125008225441
8.43772509765625,0.8266069889068604,-3.5599730014801025,-7.26460599899292,0.6525750160217285,-1.145787477493286,-0.0614624992012977
8.47216796875,1.8548890352249143,-2.868920087814331,-6.859838008880615,0.2151875048875808,0.5022875070571899,-0.5831375122070312
8.50661083984375,-1.2869930267333984,-2.9244918823242188,-2.8702049255371094,0.7503374814987183,0.233474999666214,-0.6906625032424927
8.541053955078125,-3.237668037414551,-2.5829319953918457,-4.147881984710693,1.4993000030517578,-0.2551999986171722,-0.4365625083446502
8.57549658203125,-0.8024560213088989,-2.267716884613037,-5.887391090393066,1.1827750205993652,0.1149500012397766,-0.1200374960899353
8.609939697265625,-1.4682389497756958,-1.812333941459656,1.9424010515213013,1.1682000160217283,-0.1196250021457672,-0.5451874732971191
8.644382568359376,-1.7668089866638184,3.5433590412139893,3.254733085632324,2.419174909591675,-0.5105375051498413,-0.2250874936580658
8.678825439453124,1.466323971748352,5.267849922180176,-4.1161699295043945,-0.5788750052452087,-0.1453374922275543,0.4138749837875366
8.713268310546875,-2.7617299556732178,3.489861965179444,13.383563041687012,-2.033900022506714,1.919362545013428,0.2843500077724457
8.74771142578125,-1.211956024169922,1.99787700176239,7.692800998687744,-1.1274999380111694,0.0966624990105629,-0.285037487745285
8.782154541015625,-8.563461303710938,2.495136022567749,5.828787803649902,-1.6625125408172607,-1.0554499626159668,0.3564000129699707
8.81659716796875,-0.5042080283164978,-0.7911159992218018,0.628063976764679,-2.1939499378204346,-0.1891999989748001,0.1853500008583068
8.8510400390625,0.8056570291519165,-1.8621410131454468,2.852015972137451,-1.3278374671936035,0.7881500124931335,0.0912999957799911
8.88548291015625,-1.4218180179595947,-0.2753939926624298,-2.564858913421631,-0.516587495803833,0.8894875049591064,-0.29356250166893
8.91992578125,-4.009018898010254,1.373499035835266,-1.5965160131454468,-0.8196374773979187,-0.2576749920845032,0.421162486076355
8.95436865234375,-0.1856810003519058,1.6158770322799685,-0.1518400013446808,-0.195250004529953,-0.5350124835968018,0.6875
8.988811767578126,1.8208129405975344,1.8342169523239136,1.1531380414962769,1.166962504386902,-0.2404875010251999,0.4284499883651733
9.02325439453125,-0.6291199922561646,2.4188120365142822,-0.7850589752197266,0.934862494468689,-0.7085375189781189,0.634975016117096
9.057697509765624,1.9861129522323608,0.7429900169372559,7.442403793334961,1.3697749376296997,-0.1978625059127807,0.9831249713897704
9.09214013671875,-0.5153340101242065,0.4770010113716125,8.817483901977539,2.86261248588562,0.5535749793052673,0.5249750018119812
9.126583251953123,-2.2393229007720947,-1.4705820083618164,4.1262288093566895,1.5101624727249146,-0.2454375028610229,0.6752625107765198
9.16102587890625,3.1813230514526367,-4.681527137756348,6.434356212615967,0.4314749836921692,-1.0969749689102173,0.2806375026702881
9.195468994140626,2.881418943405152,-4.28853178024292,3.5020549297332764,0.1724250018596649,-0.0475750006735324,-0.763949990272522
9.229912109375,-0.4223720133304596,-3.40002989768982,0.0648730024695396,-0.8207374811172485,1.214537501335144,-1.092574954032898
9.264354736328125,-2.813195943832397,-3.3798749446868896,-3.693696975708008,-2.561762571334839,0.6109125018119812,-0.9545249938964844
9.2987978515625,-3.035975933074951,0.0169709995388984,-0.2890360057353973,-2.9404375553131104,1.043487548828125,-0.8837124705314636
9.333240478515624,-2.7733750343322754,1.6342339515686035,0.3992420136928558,-1.2348874807357788,1.1325875520706177,-0.6319500207901001
9.36768359375,-1.0536420345306396,1.6355350017547607,-5.314830780029297,-0.1304875016212463,0.6415749788284302,-0.3827999830245971
9.402126220703124,-1.705217957496643,0.5795819759368896,-5.533240795135498,-0.3260124921798706,-0.1966249942779541,0.0252999998629093
9.436569091796876,0.1824849992990493,-0.3633430004119873,-1.9449470043182373,0.1028499975800514,-0.8684499859809875,0.4553999900817871
9.471011962890625,2.420802116394043,-1.052135944366455,-1.9487459659576416,0.8358625173568726,-0.5484874844551086,0.2756874859333038
9.505454833984375,1.7831449508666992,-1.9384299516677856,-5.85107421875,0.8273375034332275,-0.3370124995708465,-0.0577500015497207
9.539897705078126,2.181333065032959,-2.6775848865509038,-4.39835786819458,0.8089125156402588,-0.492249995470047,-0.2117500007152557
9.574340576171876,2.0940890312194824,-1.5421669483184814,-1.2788740396499634,1.1682000160217283,-0.3004375100135803,-0.6184750199317932
9.608783447265624,-2.9899590015411377,0.821012020111084,2.5232150554656982,1.5224000215530396,-0.6230124831199646,-0.633187472820282
9.643226318359376,-1.871945023536682,2.782033920288086,-0.0516039989888668,1.451587438583374,-0.8038250207901001,0.2745875120162964
9.67766943359375,-0.8198850154876709,2.6580660343170166,1.0472509860992432,-0.306487500667572,0.1467124968767166,0.3173500001430511
9.712112060546875,-2.8403239250183105,0.7261289954185486,10.88501262664795,-1.4328874349594116,-0.2259124964475631,0.3136374950408935
9.746554931640626,-1.6688369512557983,-0.5664569735527039,8.531778335571289,0.2481874972581863,-0.5275874733924866,0.1975875049829483
9.780997802734374,-0.4471699893474579,0.4779790043830871,-3.364176034927368,-0.4603500068187713,0.1504250019788742,-0.4120875000953674
9.815440673828125,-2.059079885482788,-0.2935880124568939,-1.274744987487793,-0.7853999733924866,0.0759000033140182,-0.1432749927043914
9.84988330078125,-0.923686981201172,-0.607354998588562,-0.0210769996047019,-0.152487501502037,0.1944250017404556,0.0057749999687075
9.884326416015623,-0.7932119965553284,-0.3654569983482361,-2.4412050247192383,0.0160875003784894,0.1406625062227249,0.1352999955415725
9.918769287109376,-0.2376590073108673,-0.7021939754486084,-0.5503249764442444,-0.0241999998688697,-0.2331999987363815,0.176825001835823
9.953212158203126,0.3704299926757812,-1.2507530450820925,0.658847987651825,0.4460499882698059,0.1002374961972236,0.0765874981880188
9.987655029296874,0.1445849984884262,-0.7091339826583862,-2.481036901473999,-0.1011999994516372,0.0979000031948089,0.0985874980688095
10.022097900390625,-1.1723610162734983,-1.1072590351104736,2.773437976837158,-0.6949250102043152,-0.2832500040531158,0.1255374997854232
10.05654052734375,-0.910830020904541,-0.9307469725608826,4.010711193084717,0.1504250019788742,0.2089999914169311,0.1963499933481216
10.090983642578124,-1.0774259567260742,-0.6619300246238708,-0.2094440013170242,0.0698499977588653,0.2419999986886978,0.4064500033855438
10.125426513671876,-0.6143040060997009,-0.2251940071582794,-1.3735460042953491,0.2359499931335449,0.0709500014781951,0.3136374950408935
10.159869384765624,-0.659650981426239,1.2878060340881348,-3.775379896163941,-0.322299987077713,-0.4360125064849853,0.0510125011205673
