seconds_elapsed,accel_x,accel_y,accel_z,gyro_x,gyro_y,gyro_z
0.2014677734375,0.5304999947547913,-0.7410999536514282,3.427999973297119,-1.2059178352355957,-1.1081793308258057,-1.1867016553878784
0.22132080078125,0.5304999947547913,-0.7410999536514282,3.427999973297119,-1.2059178352355957,-1.1081793308258057,-1.1867016553878784
0.241173828125,-0.0229000002145767,-0.1114000007510185,-0.2333000004291534,-1.2059178352355957,-1.1081793308258057,-1.1867016553878784
0.26102685546875,-0.0803999975323677,-0.8737999796867371,0.8490999937057495,-1.2059178352355957,-1.1081793308258057,-1.1867016553878784
0.280878662109375,0.3987999856472015,-0.1136000007390976,2.180500030517578,-1.2059178352355957,-1.1081793308258057,-1.1867016553878784
0.300733154296875,-0.5496999621391296,0.2107999920845031,-2.601099967956543,-1.2059178352355957,-1.1081793308258057,-1.1867016553878784
0.320584716796875,-0.0218000002205371,0.600600004196167,-1.5507999658584597,-1.2059178352355957,-1.1081793308258057,-1.1867016553878784
0.340436279296875,-0.9861999750137328,0.1386999934911728,2.003000020980835,-1.2059178352355957,-1.1081793308258057,-1.1867016553878784
0.36028955078125,-2.6057000160217285,-1.038100004196167,3.4976999759674072,-0.9322501420974731,-1.6872795820236206,-1.0462026596069336
0.380142578125,-1.3238999843597412,-1.827899932861328,1.9773999452590945,-0.7306646108627319,-1.2499001026153564,-1.1011805534362793
0.39999560546875,-0.1506000012159347,-0.1018999963998794,2.0028998851776123,-0.5248379707336426,-0.9669821858406068,-1.169789433479309
0.41984716796875,-1.7522000074386597,0.8722999691963196,0.757099986076355,-0.2526713013648987,-0.9305397272109984,-1.1001158952713013
0.4397001953125,-2.4925999641418457,0.0149999996647238,-0.4226999878883362,-0.382314383983612,-0.7715402245521545,-0.7421314716339111
0.459552001953125,-1.621999979019165,-0.2802000045776367,1.3365999460220337,-0.4688303470611572,-1.0121862888336182,-0.6536956429481506
0.479405029296875,-2.4213998317718506,-1.0138999223709106,0.9373999834060668,-0.3664144277572632,-0.9431584477424622,-0.608334481716156
0.499258056640625,-0.0366999991238117,0.2505999803543091,1.303399920463562,-0.0766723155975341,-0.8162555694580078,-0.6559994220733643
0.519111328125,-1.458400011062622,0.3686999976634979,0.4705999791622162,0.1219286993145942,-0.2653598487377167,-0.6580066084861755
0.538962890625,-1.023800015449524,0.4179999828338623,0.2434999942779541,0.2489712238311767,0.4130845367908478,-0.4625471532344818
0.558816162109375,-0.9923999905586244,0.6036999821662903,1.2243000268936155,0.3381401002407074,0.4529652893543243,-0.3809530138969421
0.578669189453125,-1.0709999799728394,0.1476999968290329,1.8702999353408811,0.4931427836418152,-0.256406307220459,-0.4729493260383606
0.598520751953125,-1.352199912071228,0.0243999995291233,1.5447999238967896,0.5455724596977234,-0.3406358957290649,-0.2899340987205505
0.6183740234375,-0.3407000005245209,-0.3088999986648559,1.284500002861023,0.6590538024902344,-0.4616221189498901,-0.1231853365898132
0.63822705078125,-0.1512999981641769,-0.2563000023365021,1.4189000129699707,0.989741325378418,-0.5037893056869507,-0.220016211271286
0.65807861328125,0.8450999855995178,-0.1372999995946884,1.6109999418258667,1.6972978115081787,-0.2779785990715027,-0.3534466326236725
0.677931640625,0.9955999851226808,0.6855999827384949,1.1344000101089478,2.451629161834717,0.5836206674575806,-0.4461061656475067
0.697784912109375,0.5676999688148499,2.8447999954223637,1.1510000228881836,3.1631648540496826,2.183145046234131,-0.4156850576400757
0.717637939453125,-2.26449990272522,6.248600006103516,0.8716999888420105,3.188873529434204,3.594069242477417,-0.2465975731611251
0.737489501953125,-6.258599758148193,8.605999946594238,2.956199884414673,1.9600920677185056,3.724131107330322,0.2559700012207031
0.757342529296875,-5.927599906921387,5.632299900054932,11.55869960784912,0.2391275614500045,1.9690455198287964,0.6694559454917908
0.777194091796875,-4.827399730682373,2.296799898147583,22.03849983215332,0.2573488056659698,0.1966113448143005,0.4213922917842865
0.79704736328125,-2.377500057220459,1.958199977874756,19.496000289916992,1.9878078699111936,0.0872490108013153,0.1638689637184143
0.83675341796875,-0.2219999879598617,2.908599853515625,0.9405999779701232,1.4649944305419922,1.123067021369934,-0.3739018738269806
0.856606689453125,-0.3301999866962433,1.6437000036239624,-1.1859999895095823,-0.4683241844177246,0.7373841404914856,-0.4242022633552551
0.876458251953125,-0.1431999951601028,0.1319999992847442,0.4105999767780304,-2.191452741622925,0.4198912978172302,-0.4200134873390198
0.896311279296875,-1.6811999082565308,-0.7416999936103821,2.113499879837036,-2.9828548431396484,0.6765070557594299,-0.4184426963329315
0.916164306640625,-3.947999954223633,-1.372499942779541,3.1098999977111816,-2.8545033931732178,1.202374815940857,0.0607549101114273
0.936015869140625,-2.874799966812134,-1.8375999927520752,5.054199695587158,-1.8195929527282717,0.1332209855318069,0.6176720261573792
0.955869140625,3.129999876022339,-2.111199855804444,0.579800009727478,-0.5426054000854492,-1.3771345615386963,1.198063850402832
0.975722412109375,5.660599708557129,-3.937699794769287,-4.820199966430664,0.1915149837732315,-1.725100874900818,0.7290240526199341
0.995572265625,4.264899730682373,-4.076299667358398,-4.321300029754639,1.3404827117919922,-0.7310137152671814,0.4113391935825348
1.01542529296875,1.074299931526184,-4.047999858856201,-6.895599842071533,2.388901948928833,0.3699923455715179,0.4096985757350921
1.0352802734375,-0.5041999816894531,-5.711299896240234,-9.987199783325195,2.372007131576538,0.720820963382721,0.8070053458213806
1.055131591796875,0.6873999834060669,-4.566599845886231,-10.945199966430664,1.367325782775879,-0.0154112568125128,0.8923344612121582
1.07498486328125,0.9102999567985536,-5.793900012969971,-9.540200233459473,0.1232551485300064,-1.614220142364502,1.0278418064117432
1.094837890625,1.4453999996185305,-5.5488996505737305,-6.995800018310547,-0.3562566041946411,-1.9650487899780276,0.9421112537384032
1.114691162109375,2.2578999996185303,-6.329999923706055,-6.98799991607666,-0.1896474808454513,-1.1758108139038086,0.8124856948852539
1.134542724609375,1.7389999628067017,-6.897299766540527,-6.742599964141846,0.1439896672964096,-0.0053756139241158,0.4860742092132568
1.154395751953125,0.7996999621391296,-5.993099689483643,-6.674200057983398,0.2852566242218017,0.3021688461303711,0.3090977966785431
1.174248779296875,-0.6017000079154968,-5.90399980545044,-7.706199645996094,0.0546462573111057,-0.0180467050522565,0.2743133902549743
1.194100341796875,-0.4289000034332275,-5.810400009155273,-7.182799816131592,-0.1026428118348121,-0.3866078853607178,0.2826386094093323
1.21395361328125,-0.8919000029563904,-5.66540002822876,-7.334199905395508,-0.0526391305029392,-0.3916518688201904,0.335906058549881
1.233806640625,-1.5614999532699585,-5.578000068664551,-7.486899852752685,0.0593586489558219,-0.2911034524440765,0.4648684561252594
1.253658203125,-0.505899965763092,-5.673099994659424,-7.34089994430542,0.2414488494396209,-0.1727701425552368,0.5660800933837891
1.273509765625,-1.063099980354309,-5.85290002822876,-8.260899543762207,0.3512649536132812,0.0489913932979106,0.4766145050525665
1.293364501953125,-3.703699827194214,-7.098299980163574,-8.020999908447266,0.3885975480079651,0.1618269234895706,0.6670648455619812
1.313216064453125,-3.0566999912261963,-6.365599632263184,-4.717599868774414,0.5948430895805359,0.001832595677115,0.973160684108734
1.333069091796875,-0.5220999717712402,-5.020899772644043,-4.886899948120117,0.939423441886902,-0.3163060247898102,1.0865198373794556
1.352922119140625,1.9490000009536743,-2.769599914550781,-5.7114996910095215,1.009952187538147,0.0392000935971736,0.9280264377593994
1.37277392578125,4.46019983291626,1.1017999649047852,-5.420899868011475,0.1810779124498367,0.98981112241745,0.782867431640625
1.392626953125,4.1230998039245605,4.099999904632568,1.0585999488830566,-1.4607359170913696,1.978889226913452,0.5042605400085449
1.412478515625,0.1251000016927719,3.896699905395508,13.407599449157717,-2.8709793090820312,1.120012640953064,0.1085420250892639
1.43233154296875,-0.1515000015497207,5.948400020599365,19.67269897460937,-2.981720447540283,-0.2415535748004913,0.1118057891726493
1.452184814453125,4.680599689483643,7.773900032043457,18.473899841308597,-2.3436107635498047,-0.3651403188705444,-0.2063677310943603
1.472037841796875,3.651700019836426,8.989399909973145,12.359999656677246,-1.431292176246643,0.921184778213501,-0.6577796936035156
1.491889404296875,1.714100003242493,8.63539981842041,9.714099884033203,-1.4372960329055786,2.5832269191741943,-0.8564504981040955
1.511742431640625,-2.342900037765503,6.163300037384033,13.157400131225586,-1.97566032409668,2.2660481929779053,-0.8729089498519897
1.531595947265625,-4.498600006103516,4.269000053405762,17.446399688720703,-1.713826060295105,0.2977182567119598,-0.3303035497665405
1.551447265625,0.1218999996781349,2.7344000339508057,10.302899360656738,-0.9457415342330932,-1.0471975803375244,0.0591841153800487
1.571300537109375,3.3905999660491943,1.6299999952316284,2.0353000164031982,-0.4047418534755707,-0.6634694337844849,-0.0207868721336126
1.591153564453125,2.059299945831299,0.5708999633789062,-3.41759991645813,-0.3544414639472961,0.3201457560062408,-0.1669232845306396
1.6110068359375,1.4185999631881714,-0.7085999846458435,-1.7447999715805054,-0.5436177253723145,0.4014606475830078,-0.2709972858428955
1.6308583984375,0.5584999918937683,-1.301699995994568,-0.4187999963760376,-0.1239707395434379,-0.3503399491310119,-0.4105712473392486
1.65071142578125,0.6699000000953674,-1.2827999591827393,-3.70770001411438,0.4710992574691772,-0.9016196131706238,-0.4336968660354614
1.67056298828125,0.6240999698638916,-1.314099907875061,-7.908499717712402,0.645911455154419,-0.6801722645759583,-0.388824462890625
1.690416015625,0.2439000010490417,-1.7803999185562134,-9.012299537658691,0.3931877613067627,-0.3096563220024109,-0.2579421997070312
1.710269287109375,0.6961999535560608,-2.8392999172210693,-6.944399833679199,0.1229933500289917,-0.5032831430435181,-0.2340835630893707
1.730122314453125,1.111899971961975,-3.0160999298095703,-5.397799968719482,0.3830474019050598,-0.7488160729408264,-0.3390825688838959
1.749973876953125,1.0015000104904177,-2.749500036239624,-6.115200042724609,0.8727518916130066,-0.6717772483825684,-0.3934321105480194
1.769826904296875,0.6850000023841858,-2.1686999797821045,-5.69219970703125,1.233668565750122,-0.19795523583889,-0.3628714084625244
1.78968017578125,1.6875,-1.542699933052063,-3.1364998817443848,1.3835399150848389,0.3203377425670624,-0.4432961642742157
1.80953173828125,2.0146000385284424,-0.8416000008583069,0.977299988269806,1.546902775764465,0.3053278923034668,-0.8627162575721741
1.829384765625,0.7912999987602234,1.5037999153137207,0.122699998319149,1.3382138013839722,0.4884827435016632,-1.380520582199097
1.84923779296875,-4.003399848937988,4.767299652099609,6.327699661254883,0.1782504767179489,1.7381384372711182,-1.2724148035049438
1.869091064453125,-5.026899814605713,4.421299934387207,22.47749900817871,-0.350828617811203,2.066627025604248,-0.7961145043373108
1.888942626953125,-3.534299850463867,2.3130998611450195,28.385499954223636,-0.0079587018117308,0.7154802680015564,-1.1319856643676758
1.908795654296875,-4.0980000495910645,5.84060001373291,21.379499435424805,0.253840684890747,0.063896507024765,-1.4970736503601074
1.928647216796875,-7.2052998542785645,8.368999481201172,13.852899551391602,0.1230108067393302,0.7551864981651306,-0.9737715721130372
1.948500244140625,-5.532700061798096,7.101500034332275,8.102899551391602,-0.5876174569129944,1.1206583976745603,-0.1581966429948806
1.968353515625,-3.8113999366760254,4.256899833679199,6.106100082397461,-1.295383334159851,0.5916840434074402,0.1769065707921981
1.988205078125,-3.4247000217437744,3.0471999645233154,2.9076998233795166,-1.2169133424758911,-0.6034476161003113,0.5494296550750732
2.008059814453125,0.2193000018596649,1.8214999437332156,-3.073199987411499,-0.545397937297821,-1.1600680351257324,0.9286198616027832
2.0279111328125,2.361599922180176,1.1869999170303345,-9.323299407958984,0.3124488294124603,-0.0146084055304527,0.9652194380760192
2.047762939453125,2.93149995803833,-0.4465000033378601,-11.405399322509766,0.7284654974937439,1.0350849628448486,1.0817201137542725
2.06761767578125,2.157599925994873,-2.419800043106079,-11.541099548339844,0.5618738532066345,0.483281672000885,0.9003455638885498
2.08746923828125,2.910699844360352,-3.8097000122070312,-11.815799713134766,0.3374070525169372,-0.5477367043495178,0.8260294198989868
2.107320556640625,3.524199962615967,-4.481100082397461,-11.261899948120115,0.3171088695526123,-0.6490181088447571,0.5777738094329834
2.127175537109375,2.142899990081787,-4.129300117492676,-10.94569969177246,0.2964267134666443,-0.292011022567749,0.4507836401462555
2.147027099609375,1.5199999809265137,-3.5635998249053955,-10.404199600219728,-0.0114493602886796,-0.0478045679628849,0.4438023269176483
2.16687841796875,0.9873999953269958,-3.837899923324585,-8.307499885559082,-0.2893232405185699,-0.0099832834675908,0.4662472605705261
2.186733154296875,0.6258000135421753,-4.0264997482299805,-6.37470006942749,-0.312658280134201,-0.145595371723175,0.4374842345714569
2.2065849609375,0.6270999908447266,-3.464399814605713,-5.878799915313721,-0.1509011685848236,-0.2812947034835815,0.3677408695220947
2.22643798828125,0.2593999803066253,-3.250999927520752,-6.565799713134766,-0.0415911972522735,-0.1904154270887375,0.359468013048172
2.24628955078125,0.1433999985456466,-3.378999948501587,-5.729899883270264,0.0820479243993759,-0.0182735975831747,0.3689800500869751
2.26614404296875,0.2908999919891357,-3.694199800491333,-4.162799835205078,0.4332779943943023,0.1326275765895843,0.3229382634162903
2.285995849609375,0.2714000046253204,-3.884999990463257,-4.654699802398682,0.8482823967933655,0.1313709318637848,0.2129301726818084
2.305847412109375,-1.1176999807357788,-3.171799898147583,-5.597799777984619,1.0595544576644895,0.1771160066127777,0.1833119243383407
2.325701904296875,-2.5451998710632324,-2.122900009155273,-6.024600028991699,1.0168986320495603,0.1091005280613899,0.4532794654369354
2.345553466796875,-1.367799997329712,-1.747999906539917,-4.686800003051758,0.8133757710456848,-0.0523947849869728,0.7341902256011963
2.36540673828125,-0.176499992609024,-0.8222000002861023,-1.7346999645233154,0.5880537629127502,-0.3902730643749237,0.64872145652771
2.38525830078125,-0.3574999868869781,1.833699941635132,4.35290002822876,0.7732506394386292,-0.8664512634277344,0.6534163355827332
2.405111328125,0.0394000001251697,5.460999965667725,5.644700050354004,1.4188305139541626,-0.8940798044204712,0.6117204427719116
2.42496435546875,-2.422299861907959,8.827499389648438,4.604399681091309,1.0304598808288574,-0.1836784482002258,1.130170464515686
2.44481591796875,-0.617900013923645,8.857699394226074,3.612499952316284,-0.2263343036174774,-0.0428303815424442,1.8321418762207031
2.4646708984375,1.1209999322891235,4.983599662780762,5.345999717712402,-2.153875827789306,-0.0843343064188957,2.0863142013549805
2.484522216796875,2.849799871444702,1.0770999193191528,16.568599700927734,-2.681035041809082,-0.1469043642282486,1.7312618494033811
2.504375244140625,3.1684999465942383,-0.0258999988436698,18.304800033569336,-1.2367926836013794,-0.5029515027999878,0.9407848119735718
2.524228515625,2.091899871826172,1.346400022506714,10.06779956817627,-0.0509810671210289,-0.1705535799264907,0.413590669631958
2.544080078125,0.1664000004529953,1.539099931716919,2.3980000019073486,-0.1280198991298675,0.517751932144165,0.3567278385162353
2.563933349609375,0.0572999976575374,-0.7667999863624573,-0.3366000056266784,-1.1362093687057495,0.6164153814315796,0.3545636236667633
2.583786376953125,0.6524999737739563,-2.882299900054932,2.2172000408172607,-1.8332589864730835,0.164130762219429,0.1051037237048149
2.603637939453125,0.5612999796867371,-3.7368998527526855,4.644799709320068,-1.5348076820373535,-0.0960280150175094,-0.203749731183052
2.6234912109375,-1.524899959564209,-3.8616998195648193,4.700099945068359,-0.3230255246162414,0.1391551047563552,-0.2295631617307663
2.64334423828125,-1.811599969863892,-3.7530999183654794,-0.8043999671936035,0.8406203985214233,0.1683195531368255,-0.0457799844443798
2.66319580078125,0.2434999942779541,-3.5727999210357666,-8.030900001525879,0.7875274419784546,0.1559626162052154,0.0674046128988266
2.683048828125,0.8335999846458435,-3.7652997970581055,-9.816699981689451,-0.0895004868507385,0.1920560300350189,0.0956091359257698
2.702900390625,1.4646999835968018,-4.148200035095215,-6.327499866485596,-0.6292435526847839,0.1033060401678085,0.0895353928208351
2.722753662109375,2.2455999851226807,-3.51419997215271,-2.855899810791016,-0.3202504515647888,0.0781732946634292,-0.0138928210362792
2.742606689453125,1.7842999696731567,-2.4343998432159424,-2.072000026702881,0.5499881505966187,0.3208962380886078,-0.140917882323265
2.762459716796875,1.7770999670028689,-1.372399926185608,-3.6064000129699703,1.3720033168792725,0.7671245336532593,-0.2416233867406845
2.782311279296875,1.4828999042510986,-0.8677999973297119,-5.85099983215332,1.5467456579208374,1.0248922109603882,-0.3224146664142608
2.80216455078125,1.1999999284744265,-0.5388000011444092,-4.039499759674072,1.254263401031494,0.7848396301269531,-0.3977081775665283
2.822017578125,-0.7437999844551086,0.1766999959945678,0.0579000003635883,1.4648374319076538,0.4084244966506958,-0.3854385018348694
2.841869140625,-3.170599937438965,0.1648000031709671,2.152899980545044,1.732151985168457,-0.2717477679252624,0.0578751191496849
2.86172216796875,-1.184999942779541,-1.2388999462127686,4.828399658203125,1.7820509672164917,-1.647398829460144,0.4798608124256134
2.881575439453125,1.6297999620437622,-2.2784998416900635,3.485599994659424,2.0062384605407715,-3.018843650817871,0.1326101124286651
2.901427001953125,4.66379976272583,1.3396999835968018,-6.99269962310791,1.0492570400238037,-1.8986738920211792,-0.2903878688812256
2.921280029296875,4.27899980545044,5.59149980545044,-1.5269999504089355,-1.4332643747329712,0.5301263332366943,-0.1374446749687194
2.941133056640625,0.8240000009536743,1.8528000116348269,21.252099990844727,-2.334692001342773,0.6634171009063721,-0.1762433499097824
2.96098486328125,1.0371999740600586,1.424799919128418,25.377099990844727,-0.917484700679779,-1.1761599779129028,-0.8568868637084961
2.980837890625,3.125200033187866,8.696100234985352,12.71339988708496,-0.1237438470125198,-0.8419293761253357,-1.728155255317688
3.00069091796875,-4.941099643707275,14.047199249267578,4.065099716186523,-0.2778913080692291,1.314023494720459,-1.3670815229415894
3.0205439453125,-5.914899826049805,10.436399459838867,-0.2514999806880951,-1.564774990081787,1.9640713930130005,-0.1436929553747177
3.040395751953125,-0.7824999690055847,3.4721999168396,-1.8032000064849851,-3.156166076660156,1.112769603729248,0.3787713646888733
3.060248779296875,3.444999933242798,-2.104599952697754,-1.9393999576568604,-4.731622695922852,-0.06155776232481,0.1736777126789093
3.08010205078125,5.217400074005127,-3.787799835205078,6.023200035095215,-4.539828300476074,-0.7907912135124207,-0.6685134768486023
3.099953369140625,2.030099868774414,-1.3423999547958374,7.067899703979492,-2.394399642944336,-0.3257656991481781,-1.2764815092086792
3.119806884765625,-0.5482999682426453,0.9807999730110168,2.787799835205078,0.1694889217615127,0.217136412858963,-1.2509996891021729
3.139659912109375,-2.823699951171875,1.2703999280929563,-7.845999717712402,1.0540218353271484,0.1268854290246963,-1.054807186126709
3.159511474609375,-2.3374998569488525,0.0882999971508979,-12.607999801635742,0.0207694172859191,-0.3629237711429596,-0.6102020144462585
3.179364501953125,0.8776999711990356,-1.7913999557495115,-6.685999870300293,-0.8490328788757324,-0.981922209262848,-0.5939355492591858
3.1992177734375,0.090499997138977,-1.5757999420166016,-1.7401999235153198,-0.2874382734298706,-0.6962292790412903,-0.7242418527603149
3.21907080078125,-0.9215999841690063,-1.4090999364852903,-2.528899908065796,0.8266926407814026,-0.0492357388138771,-0.6152809262275696
3.23892236328125,-1.893499970436096,-1.434399962425232,-5.479399681091309,1.4975972175598145,0.335225373506546,-0.4654269516468048
3.258775390625,-2.6009998321533203,-1.045699954032898,-8.488299369812012,1.4725342988967896,0.2085144817829132,-0.2702293395996094
3.27862841796875,-2.1541998386383057,-1.326799988746643,-9.66569995880127,1.0384011268615725,-0.3154508173465729,-0.0987681820988655
3.298480224609375,-1.470699906349182,-1.8102999925613403,-9.2947998046875,0.7176095843315125,-0.6328912973403931,0.010925761424005
3.318333251953125,-1.1557999849319458,-2.0183000564575195,-8.009300231933594,0.8768883347511292,-0.4159643054008484,0.1056447774171829
3.338186279296875,-1.218699932098389,-2.470399856567383,-8.386899948120117,1.3435544967651367,0.0956265926361084,0.2584308981895447
3.358039306640625,-0.9253999590873718,-3.0737998485565186,-9.463899612426758,1.5992801189422607,0.2507514655590057,0.317806988954544
3.37789111328125,-0.4830999970436096,-3.37719988822937,-10.7391996383667,1.48421049118042,-0.0607025511562824,0.2388832122087478
3.39774267578125,-0.7775999903678894,-3.3337998390197754,-10.76830005645752,1.1166093349456787,-0.3599043488502502,0.1378286480903625
3.41759716796875,-1.164699912071228,-3.72379994392395,-7.987599849700928,0.786881685256958,-0.6636963486671448,0.095521867275238
3.43744873046875,-1.0016000270843506,-5.152499675750732,-4.456699848175049,0.6617241501808167,-0.99967223405838,0.0594633668661117
3.457302001953125,2.2159998416900635,-3.292099952697754,-0.4598999917507171,0.7165972590446472,-1.112228512763977,-0.4608891010284424
3.477155029296875,4.102499961853027,0.0438000001013278,3.008999824523926,0.8394160866737366,-1.7881945371627808,-0.9841387867927552
3.497006591796875,4.195099830627441,4.937399864196777,2.292399883270264,0.8310385346412659,-1.329015851020813,-0.9826727509498596
3.516859619140625,3.9766998291015625,8.220499992370605,1.8988999128341677,0.8058359622955322,-0.2775247991085052,-0.6765070557594299
3.536713134765625,3.0185999870300293,9.168700218200684,-0.348499983549118,-0.3090454638004303,0.747646689414978,-0.2147627621889114
3.556564453125,0.7750999927520752,6.238100051879883,5.401999950408936,-2.345286130905152,1.075943112373352,0.1242674440145492
3.57641748046875,0.3472999930381775,2.574899911880493,15.211599349975586,-3.176499128341675,0.2543119192123413,0.3454355597496032
3.596270751953125,1.501599907875061,2.553999900817871,19.22089958190918,-1.922131061553955,-0.1235344037413597,0.0279252678155899
3.6161240234375,-1.868799924850464,4.990200042724609,11.222000122070312,-0.242932379245758,0.396922767162323,0.0459719710052013
3.6359755859375,-2.725299835205078,5.032700061798096,1.7623999118804932,0.1052957102656364,1.3626832962036133,0.5551368594169617
3.65582861328125,-1.4703999757766724,2.0672998428344727,-2.236999988555908,-0.9872803688049316,1.2822409868240356,0.88027423620224
3.675681640625,-0.3436000049114227,-0.8686999678611755,0.5313000082969666,-1.9692898988723757,0.1607622802257537,0.8363268971443176
3.695533203125,-0.0720999985933303,-1.916899919509888,2.459399938583374,-1.6708385944366455,-0.4170813262462616,0.6113190054893494
3.715386474609375,-0.6909999847412109,-1.3791999816894531,-0.97489994764328,-0.7463725805282593,-0.1327148377895355,0.5757666826248169
3.735238037109375,0.0120000001043081,-1.2156000137329102,-5.718100070953369,-0.3867649734020233,0.3476695716381073,0.6060481071472168
3.755091064453125,1.911099910736084,-2.578699827194214,-6.677399635314941,-0.5700594186782837,0.2543642818927765,0.326481282711029
3.774944091796875,2.005699872970581,-2.704200029373169,-4.537099838256836,-0.4583932757377624,0.085154615342617,-0.2822197377681732
3.79479736328125,-0.8370999693870544,-1.1799999475479126,-3.456199884414673,0.2290046513080597,0.3153635561466217,-0.59327232837677
3.81464892578125,-3.3237998485565186,0.3495999872684479,-4.897200107574463,0.9074141383171082,0.6757915019989014,-0.3024830222129822
3.834501953125,-2.198899984359741,0.2158999890089035,-6.132099628448486,1.0026392936706543,0.7115532755851746,0.1051037237048149
3.874208251953125,0.4939999878406524,0.4156999886035919,-3.9940998554229736,0.4407654404640198,0.0468271821737289,-0.2250427603721618
3.894059814453125,-0.4330999851226806,1.5575999021530151,2.381700038909912,0.7402464747428894,0.7732506394386292,-0.2829004228115082
3.913912841796875,-1.1539000272750854,3.273200035095215,7.769599914550781,1.3546721935272217,1.0496584177017212,0.0185353960841894
3.933765869140625,0.4667999744415283,4.5843000411987305,8.335999488830566,0.7960097789764404,-0.1089958101511001,-0.0368089936673641
3.95361767578125,2.224400043487549,7.0671000480651855,15.342299461364746,-0.3449119627475738,-0.1929287016391754,-0.2355496287345886
3.973470703125,3.4423999786376958,6.079699993133545,25.787899017333984,0.00132645026315,1.2361992597579956,-0.5978450775146484
3.99332373046875,0.2378999888896942,4.721099853515625,27.4242000579834,1.2190775871276855,1.3658597469329834,-1.060252666473389
4.01317529296875,-0.6214999556541443,6.018899917602539,17.242799758911133,1.8081086874008176,0.2762681543827057,-1.2767432928085327
4.0330283203125,-1.0734000205993652,8.225099563598633,8.253000259399414,1.442270278930664,-0.074804812669754,-1.2338954210281372
4.0528818359375,-2.4268999099731445,8.578399658203125,0.1358999907970428,0.8991237878799438,0.5692042112350464,-0.7385011911392212
4.072733154296875,-4.1138997077941895,5.007199764251709,-5.2266998291015625,-0.314508318901062,1.119593858718872,0.1723163574934005
4.09258642578125,-2.106799840927124,-0.5073999762535095,-5.5000996589660645,-1.717020034790039,0.1102175414562225,0.7388677000999451
4.112439453125,1.0898000001907349,-4.483399868011475,-3.8693997859954834,-2.438050508499145,-1.2177685499191284,0.7636339068412781
4.132291015625,2.341099977493286,-5.872200012207031,-0.8806999921798706,-1.8403973579406736,-1.7002997398376465,0.3961548209190368
4.152144287109375,1.26010000705719,-5.315599918365479,-1.66349995136261,-0.3008947670459747,-1.6148135662078855,0.1125911921262741
4.171997314453125,0.3704999983310699,-3.713500022888184,-7.255399703979492,1.0161480903625488,-1.0251539945602417,0.0896052047610282
4.191848876953125,-1.2730000019073486,-3.1828999519348145,-12.637399673461914,1.345369577407837,-0.0620115473866462,0.4362974166870117
4.2117021484375,-0.5442999601364136,-4.1230998039245605,-12.656700134277344,0.8037590384483337,0.1098859310150146,0.789691686630249
4.2315537109375,1.8009999990463257,-4.642099857330322,-9.126299858093262,0.4939805269241333,-0.3295705318450928,0.5769883990287781
4.251408203125,2.9670000076293945,-4.849199771881104,-11.52549934387207,0.0368788056075573,-0.3879168927669525,-0.0627794936299324
4.271259765625,-0.2541999816894531,-3.4842000007629395,-9.217100143432615,-0.2548355162143707,-0.018954275175929,-0.2228261828422546
4.291113037109375,-2.61169981956482,-2.7251999378204346,-7.796899795532227,-0.2724458873271942,0.3769387602806091,0.1442340016365051
4.310964599609375,-1.7240999937057495,-3.208599805831909,-7.525099754333496,-0.3657512068748474,0.3051708042621612,0.4448146224021911
4.330817626953125,-0.0211999993771314,-3.842299938201904,-6.103799819946289,-0.5762029886245728,-0.1558579057455063,0.399802565574646
4.350670654296875,0.3686999976634979,-4.1041998863220215,-4.337299823760986,-0.3891909718513489,-0.3430269956588745,0.1635024398565292
4.37052392578125,-0.5918999910354614,-3.825999975204468,-3.791599988937378,0.1953023374080658,-0.165945902466774,0.0184481292963027
4.39037548828125,-1.5232999324798584,-3.222100019454956,-5.747099876403809,0.7201228737831116,0.2241177260875702,0.0119555052369833
4.410228515625,-1.3758000135421753,-3.3506999015808105,-7.76639986038208,0.7967951893806458,0.5411044359207153,0.0371755138039588
4.43008154296875,-0.6746999621391296,-3.864499807357788,-7.992199897766113,0.3696432709693908,0.0270700566470623,-0.1842893213033676
4.44993310546875,-1.760699987411499,-3.586399793624878,-6.223799705505371,-0.275238424539566,-1.1558268070220947,-0.3791553378105163
4.469786376953125,-2.4480998516082764,-2.0088999271392822,-4.0503997802734375,-0.5108054876327515,-1.845406413078308,-0.3539876639842987
4.489639404296875,1.064199924468994,-0.1463999897241592,-0.976099967956543,-0.2080257982015609,-1.6615533828735352,-0.3458544313907623
4.509492431640625,4.214099884033203,2.710099935531616,3.13319993019104,0.8510574698448181,-0.4199611246585846,-0.7934441566467285
4.529343994140625,1.5322999954223633,4.94189977645874,4.20359992980957,2.004248857498169,1.3943610191345217,-0.786811888217926
4.549197265625,3.80649995803833,7.44849967956543,0.4125999808311462,1.881988525390625,1.6118813753128052,-0.2813819944858551
4.569048828125,4.9197998046875,6.781799793243408,-1.7109999656677246,0.0486248731613159,0.6383716464042664,-0.5687329769134521
4.58890185546875,-2.986899852752685,7.877699851989746,2.5037999153137207,-2.116368770599365,0.2766695916652679,-0.4633849263191223
4.608755126953125,-4.541800022125244,7.743099689483643,12.438599586486816,-2.5542893409729004,0.7321656346321106,0.6188937425613403
4.6286083984375,-0.8321999907493591,4.502799987792969,11.643699645996094,-2.388483047485352,0.6973637342453003,1.1108671426773071
4.6484599609375,0.0635000020265579,2.192199945449829,13.051499366760254,-2.2490313053131104,0.7291811108589172,1.133800745010376
4.66831298828125,-0.1823000013828277,0.3353999853134155,15.352099418640137,-1.3871352672576904,0.7187265753746033,0.8832238912582397
4.688166015625,-0.8551999926567078,0.1509999930858612,12.351900100708008,-0.0802851468324661,0.452825665473938,0.7181331515312195
4.708019287109375,-0.9751999974250792,0.2563999891281128,2.946499824523926,0.4831944108009338,-0.1353677362203598,0.6034476161003113
4.727870849609375,0.6857999563217163,0.0428999997675418,-4.808700084686279,-0.1874309033155441,-0.7640353441238403,0.5838649868965149
4.747723876953125,2.6726999282836914,-0.6534000039100647,-6.658999919891357,-0.9070476293563844,-0.7703010439872742,0.3348588645458221
4.767576904296875,2.026900053024292,-0.733299970626831,-5.355799674987793,-0.9903347492218018,-0.2142915278673172,0.092607170343399
4.787428466796875,0.8915999531745911,-0.8938999772071838,-3.532899856567383,-0.63137286901474,0.1765575110912323,-0.0265290047973394
4.80728173828125,0.6111999750137329,-1.10099995136261,-2.568699836730957,0.2364746630191803,0.0603360310196876,-0.2203478217124939
4.827134765625,0.5848000049591064,0.9511999487876892,-3.956799983978272,0.8028689026832581,0.2380629032850265,-0.489111065864563
4.846986328125,-0.941100001335144,1.4465999603271484,-8.036399841308594,0.6221051812171936,-0.0043109632097184,-0.4820599257946014
4.86683935546875,1.1265000104904177,1.348699927330017,-4.387899875640869,0.1967509686946869,-0.1219636052846908,-0.5774421691894531
4.886692626953125,-0.1156999990344047,1.3208999633789062,2.5878000259399414,0.7158817052841187,0.0132470494136214,-0.8177739977836609
4.906545654296875,-2.4532999992370605,1.689099907875061,8.294099807739258,2.352860927581787,0.4596673548221588,-0.6544111967086792
4.926397216796875,-2.901599884033203,1.024999976158142,3.914299964904785,3.4069526195526123,0.4414461255073547,-0.3251548409461975
4.946250244140625,-1.5507999658584597,0.4276999831199646,1.1461999416351318,2.7726824283599854,0.0358839705586433,-0.1839576959609985
4.966103515625,-1.2035999298095703,1.3698999881744385,5.335799694061279,1.6339423656463623,-0.3105464279651642,-0.1864709705114364
4.985955078125,-1.442699909210205,2.075000047683716,8.713600158691406,0.6679375171661377,-0.8880933523178101,0.145647719502449
5.00580810546875,1.1013000011444092,0.5205000042915344,12.071700096130373,0.2043955028057098,-1.2651193141937256,0.2728647887706756
5.0256611328125,2.382999897003174,2.2117998600006104,11.922100067138672,0.7222870588302612,-0.7282211780548096,0.0767944902181625
5.045512939453125,1.803299903869629,4.328999996185303,6.70359992980957,0.9151284694671632,0.4792150557041168,0.1121897622942924
5.065365966796875,1.4498999118804932,5.241299629211426,2.7876999378204346,0.8402014970779419,1.7624335289001465,0.0580845586955547
5.08521923828125,-3.229599952697754,4.425300121307373,-2.2172999382019043,0.1020668521523475,2.35506010055542,0.1269377917051315
5.105072265625,-4.230599880218506,1.944799900054932,-3.449199914932251,-0.9257575273513794,2.0938191413879395,0.5838999152183533
5.124924072265625,-0.930299997329712,-1.7810999155044556,-2.7951998710632324,-1.4515902996063232,1.4426542520523071,0.7003133893013
5.144777099609375,1.7477999925613403,-2.8160998821258545,-2.512699842453003,-1.3723349571228027,0.8362745046615601,0.2520430088043213
5.164630126953125,0.9081999659538268,-2.6364998817443848,-4.470699787139893,-1.2699015140533447,0.0049741882830858,-0.1579872071743011
5.184481689453125,0.1799999922513961,-1.9515999555587769,-4.920499801635742,-1.2784711122512815,-0.9546078443527222,-0.1393645405769348
5.2043349609375,0.8359999656677246,-1.3507999181747437,-4.876699924468994,-0.8898037672042847,-0.8850215673446655,0.0697957128286361
5.22418798828125,1.5698999166488647,-1.0930999517440796,-6.513999938964844,-0.4875228106975555,0.213558480143547,0.2566157579421997
5.24403955078125,2.446699857711792,-1.574199914932251,-6.10189962387085,-0.7293556332588196,0.9750456213951112,0.3134436905384063
5.263892578125,2.0785999298095703,-2.2493999004364014,-3.135900020599365,-1.137291431427002,0.5455549955368042,0.2538930475711822
5.303597412109375,1.4284999370574951,-2.687700033187866,0.6140999794006348,-0.5049586296081543,-0.5229879021644592,0.0629889294505119
5.323450439453125,1.8091999292373655,-2.5111000537872314,-1.3084999322891235,0.3755424916744232,-0.3152937293052673,-0.0716283097863197
5.343303466796875,1.6684999465942385,-2.479699850082397,-4.374000072479248,0.9565625786781312,-0.0535117946565151,-0.2808932960033417
5.363155029296875,0.3953999876976013,-2.3515000343322754,-6.50469970703125,1.168724775314331,-0.0697608068585395,-0.3278077244758606
5.38300830078125,-0.1887999922037124,-2.532999992370605,-7.927799701690674,1.1042349338531494,-0.2401223927736282,-0.2140820920467376
5.402861328125,-0.1245999932289123,-3.046499967575073,-8.482099533081055,0.9698445796966552,-0.405597060918808,-0.0600742325186729
5.422712890625,0.3393999934196472,-3.763399839401245,-8.321700096130371,0.8859989643096924,-0.565085232257843,0.0069464105181396
5.44256591796875,0.6139000058174133,-4.377200126647949,-7.932499885559082,0.954276204109192,-0.7195817828178406,0.0081681404262781
5.462419189453125,0.8531000018119812,-4.736299991607666,-8.779999732971191,1.0568666458129885,-0.7144505381584167,-0.0715934038162231
5.482270751953125,0.8377999663352966,-4.541399955749512,-10.04360008239746,1.0083988904953003,-0.4882907569408417,-0.1468869149684906
5.502123779296875,0.5263000130653381,-3.7278997898101807,-9.000399589538574,0.7015525698661804,-0.169907808303833,-0.1677086800336837
5.521976806640625,-0.2391999959945678,-2.7444000244140625,-2.1201000213623047,0.6427698731422424,-0.4472929835319519,-0.2272593230009079
5.541828369140625,2.869499921798706,0.1918999999761581,1.7424999475479126,1.521595478057861,-1.390748143196106,-0.5039463639259338
5.561681640625,2.4666998386383057,3.724599838256836,-5.535399913787842,1.4701781272888184,-1.229113221168518,-0.5968851447105408
5.58153466796875,3.705199956893921,9.346699714660645,-9.148599624633787,-0.9045343399047852,0.6194697022438049,-0.107669360935688
5.60138623046875,-0.9628999829292296,4.405099868774414,8.615799903869629,-3.453465461730957,1.5690510272979736,0.2649409770965576
5.6212392578125,-0.2415999919176101,-0.0037999998312443,23.920799255371094,-3.109565734863281,0.6969274282455444,0.1823869049549102
5.6410927734375,1.0119999647140503,-0.4151999950408935,19.72949981689453,-1.5554897785186768,0.0456927195191383,-0.8995077610015869
5.660944091796875,-6.458399772644043,5.52079963684082,7.248600006103516,-0.6746395826339722,1.27046000957489,-1.2137019634246826
5.68079736328125,-10.404399871826172,7.096999645233154,-3.1275999546051025,-2.466289758682251,1.9828859567642207,-0.1123817488551139
5.700650390625,-6.474699974060059,-0.4784999787807464,8.371399879455566,-4.723227500915527,0.815592348575592,0.9619556665420532
5.720503662109375,2.3236000537872314,-4.15910005569458,22.269399642944336,-3.630756139755249,-0.6776415109634399,0.6423160433769226
5.740355224609375,4.406899929046631,-1.4285999536514282,16.685298919677734,-0.6814637780189514,-1.137989521026611,-0.5024802684783936
5.760208251953125,0.8222999572753906,2.504699945449829,1.6793999671936035,1.1162601709365845,-0.350723922252655,-0.9003106355667114
5.780061279296875,0.2602999806404114,3.713899850845337,-8.132200241088867,0.7447494268417358,-0.0274016689509153,-0.5472654104232788
5.7999130859375,1.7141999006271362,2.3585000038146973,-6.819900035858154,-0.2052681744098663,-0.592818558216095,-0.4027347266674042
5.81976611328125,1.9363999366760252,1.1785999536514282,-2.63479995727539,-0.1274788528680801,-0.9226857423782348,-0.5912477374076843
5.839619140625,0.7912999987602234,1.192199945449829,-2.4408998489379883,0.785066545009613,-0.6241123080253601,-0.7357609868049622
5.85947216796875,-0.1419999897480011,0.8283999562263489,-4.448599815368652,1.4196158647537231,-0.2205921560525894,-0.6780604124069214
5.879323974609375,-0.8127999901771545,0.6389999985694885,-5.254299640655518,1.5847065448760986,-0.2284461408853531,-0.5390100479125977
5.899177001953125,-1.2245999574661257,0.5073999762535095,-4.610300064086914,1.376279354095459,-0.4703662395477295,-0.3096563220024109
5.919030029296875,-0.7708999514579773,-0.1648000031709671,-1.8563998937606807,1.2160756587982178,-0.5661673545837402,-0.190607413649559
5.938881591796875,-1.2822999954223633,-0.7774999737739563,5.952300071716309,1.7903587818145752,-0.0296356901526451,-0.1130449771881103
5.95873486328125,-1.8769999742507932,-0.6184999942779541,11.258099555969238,3.1035444736480717,0.278188019990921,-0.2471037209033966
5.978587890625,-3.228399991989136,2.39739990234375,6.614099979400635,3.406341552734375,-0.1809731870889663,-0.2773328125476837
5.99844091796875,-3.251199960708618,5.086899757385254,9.59980010986328,1.826120495796204,-0.4238008558750152,0.3543018400669098
6.01829248046875,0.574400007724762,2.978600025177002,23.02669906616211,1.5536397695541382,-0.8298168182373047,0.4858996570110321
6.038145751953125,2.063499927520752,2.392899990081787,24.32939910888672,2.41310977935791,-1.4744715690612793,-0.1075646430253982
6.057997314453125,2.1877999305725098,5.547199726104736,14.61299991607666,2.8356189727783203,-1.742240071296692,-0.7314674854278564
6.077850341796875,0.1439999938011169,9.789400100708008,2.700199842453003,2.688260793685913,-0.6772924661636353,-0.6457718014717102
6.097703369140625,0.7310000061988831,9.81470012664795,-8.501299858093262,1.8082658052444456,1.3528919219970703,-0.0090757124125957
6.117556640625,0.2997999787330627,5.662799835205078,-13.759299278259276,-0.2307848930358886,1.5962432622909546,0.3349984884262085
6.137408203125,-0.3757999837398529,0.5429999828338623,-14.177899360656738,-2.768057346343994,0.0892037749290466,0.3907442986965179
6.157261474609375,-1.0255999565124512,-3.8803999423980713,-8.644899368286133,-4.263175964355469,-0.9115505814552308,0.6673790216445923
6.177114501953125,0.4693999886512756,-6.574499607086182,-1.336300015449524,-3.590962648391724,-0.6265557408332825,0.7733030319213867
6.196966064453125,1.4570999145507812,-6.908400058746338,-1.3781999349594116,-1.6906306743621826,0.1923701912164688,0.3893480598926544
6.2168193359375,0.8969999551773071,-5.649699687957764,-6.041999816894531,-0.2635447084903717,0.6455798149108887,-0.0920835733413696
6.23667236328125,-0.0652999952435493,-4.832299709320068,-8.287300109863281,0.2866179645061493,0.4879242479801178,-0.29595547914505
6.256525390625,0.1635999977588653,-4.665299892425537,-8.914400100708008,0.4535936117172241,-0.2161415666341781,-0.4281292557716369
6.276376953125,-0.8176999688148499,-4.1528000831604,-9.640600204467772,0.5669527649879456,-0.7317816615104675,-0.4908389449119568
6.296230224609375,-1.6698999404907229,-3.5804998874664307,-11.382999420166016,0.5593430995941162,-0.5818403959274292,-0.2511005103588104
6.316083251953125,-0.6389999985694885,-3.644299983978272,-13.15369987487793,0.1619316488504409,-0.1073901057243347,0.0832871124148368
6.335934814453125,0.0206000003963708,-4.172399997711182,-12.859600067138672,-0.5221850275993347,0.5616644024848938,0.277088463306427
6.355787841796875,-0.0167999994009733,-5.216599941253662,-8.474599838256836,-0.9862331748008728,0.61515873670578,0.3276855647563934
6.37564111328125,0.2447999864816665,-5.507299900054932,-6.020499706268311,-0.9946282505989076,0.0924675464630127,0.2195973247289657
6.39549267578125,-0.2140000015497207,-5.088699817657471,-6.279999732971191,-0.7572110891342163,-0.1398706883192062,0.1719498336315155
6.415345703125,-0.3138999938964844,-4.600100040435791,-7.002799987792969,-0.362417608499527,0.3339687585830688,0.2957809567451477
6.43519873046875,-0.1400000005960464,-4.569499969482422,-7.53849983215332,-0.0150272846221923,0.9150586724281312,0.3246836066246032
6.45505029296875,0.4986999928951263,-5.235199928283691,-6.803299903869629,0.111509084701538,0.8525933623313904,0.1285434961318969
6.474903564453125,0.0938999950885772,-5.06850004196167,-6.152199745178223,0.1403942853212356,0.0971799343824386,-0.2182883322238922
6.494756591796875,-1.407599925994873,-3.013399839401245,-5.901700019836426,0.2949780821800232,-0.162298172712326,-0.3595727384090423
6.514609619140625,-3.242300033569336,-1.2386000156402588,-3.989300012588501,0.658407986164093,0.3640931248664856,-0.1278628259897232
6.534461181640625,-1.8732999563217163,0.474399983882904,-0.8301999568939209,1.2061620950698853,0.668251633644104,0.0400727577507495
6.554314453125,-0.001300000003539,3.3522000312805176,-0.0894999951124191,1.38498854637146,0.1529257446527481,0.0127932634204626
6.574166015625,0.914799988269806,6.596199989318848,-4.858299732208252,-0.5720491409301758,-0.2002590745687484,0.1995434910058975
6.59401904296875,-0.6395999789237976,5.361000061035156,9.376099586486816,-3.415330171585083,-0.415719985961914,0.7799353003501892
6.6138720703125,1.200899958610535,0.488999992609024,26.454500198364254,-3.723118782043457,-0.9177988171577454,0.9156171679496764
6.633723876953125,4.438799858093262,0.777899980545044,28.1879997253418,-1.4757282733917236,-0.6877818703651428,0.2452536672353744
6.653576904296875,2.628499984741211,3.874799966812134,13.405200004577637,0.6674836874008179,0.8124158382415771,-0.6101670861244202
6.67343017578125,-3.374799966812134,8.15820026397705,-0.7504000067710876,0.2149721980094909,2.621379852294922,-0.6603278517723083
6.693281494140625,-6.198299884796143,6.250400066375732,0.4224999845027923,-2.3315155506134038,2.307063579559326,-0.0386241376399993
6.713135009765625,-3.732899904251098,1.077199935913086,12.493599891662598,-3.7537145614624015,0.6335370540618896,0.4246385991573334
6.732988037109375,0.4922999739646911,-1.041100025177002,18.14389991760254,-2.667508840560913,-0.7992560863494873,0.3189938366413116
6.752839599609375,0.9723999500274658,0.3136000037193298,10.758699417114258,-0.7110995054244995,-0.5849994421005249,0.0503352954983711
6.772692626953125,0.2712000012397766,1.4767999649047852,1.0628999471664429,0.4175525605678558,0.5059011578559875,0.0982096791267395
6.792545654296875,0.8325999975204468,1.111799955368042,-6.223199844360352,0.041137408465147,0.2847504615783691,0.1821251064538955
6.8123974609375,1.7595999240875244,0.590499997138977,-7.274899959564209,-0.9876643419265748,-0.8421562910079956,0.2134188562631607
6.83225048828125,3.207599878311157,-0.4229999780654907,-2.787600040435791,-1.063760757446289,-1.4648199081420898,0.1851096153259277
6.87195654296875,3.019599914550781,-0.8490999937057495,-4.626399993896484,1.2985947132110596,-0.3401646614074707,-0.3710395395755768
6.891808349609375,1.4997999668121338,-0.536300003528595,-8.853799819946289,1.8150900602340696,0.3527484834194183,-0.4987627267837524
6.911661376953125,0.5321999788284302,-0.5539000034332275,-11.307499885559082,1.484367609024048,0.2796366512775421,-0.4996004998683929
6.931514404296875,-0.8680999875068665,-0.2114999890327453,-10.483799934387209,0.7149392366409302,-0.1621934473514557,-0.3839026093482971
6.951365966796875,-1.051699995994568,0.1574999988079071,-3.879699945449829,0.5816658735275269,-0.1788438856601715,-0.148527517914772
6.97121923828125,-1.0856999158859253,0.1872999966144561,1.8738999366760252,1.2062842845916748,-0.0303861815482378,-0.0418180897831916
6.991072265625,0.1072999984025955,0.7199999690055847,5.6331000328063965,1.7574069499969482,-0.1610066294670105,-0.1614429503679275
7.01092529296875,0.5794000029563904,4.078199863433838,8.290999412536621,1.559294581413269,-0.5319414734840393,-0.2559700012207031
7.03077685546875,-0.2514999806880951,6.045000076293945,15.609600067138672,0.8637285232543945,-0.3132342398166656,0.0109781213104724
7.050630126953125,-0.1909999996423721,3.586999893188477,23.133298873901367,1.2101763486862185,-0.0951378941535949,0.1111600175499916
7.070483154296875,-0.7573999762535095,2.835099935531616,20.57069969177246,2.07236909866333,0.1332209855318069,-0.2267008125782013
7.090334716796875,-2.155400037765503,3.880999803543091,14.045599937438965,2.075039386749268,0.5358684659004211,-0.5164428949356079
7.110187744140625,-3.415899991989136,5.368400096893311,6.370999813079834,1.2581205368041992,0.6724753379821777,-0.5801474452018738
7.130041259765625,-4.881099700927734,6.421099662780762,0.8116999864578247,0.0334754139184951,0.4054749011993408,-0.3021688461303711
7.149894287109375,-4.551199913024902,5.506899833679199,-0.9248999953269958,-0.9215862154960632,0.2944021224975586,0.5427101254463196
7.169745849609375,0.8833000063896179,0.8977999687194824,1.6238999366760254,-0.753545880317688,0.7089701890945435,0.9925512671470642
7.189598876953125,5.321300029754639,-2.6669998168945312,-0.0238999985158443,0.1606575548648834,1.2894318103790283,0.433173269033432
7.2094521484375,4.127999782562256,-3.925999879837036,-5.764699935913086,0.7231073379516602,1.367430567741394,-0.3348239660263061
7.2293037109375,2.515199899673462,-5.353099822998047,-8.311399459838867,0.3803246915340423,-0.9476090669631958,-0.7230026125907898
7.24915673828125,0.2689000070095062,-5.145599842071533,-9.15369987487793,0.014102260582149,-1.543010711669922,-0.5630257725715637
7.269009765625,1.909199953079224,-5.285099983215332,-9.984000205993652,0.5430417656898499,-0.2931280434131622,-0.2355321794748306
7.288861328125,3.6313998699188232,-5.831399917602539,-11.970199584960938,1.0616663694381714,0.9031729698181152,-0.2811550796031952
7.308714599609375,2.7189998626708984,-5.1554999351501465,-12.181300163269045,0.91633278131485,0.8578816652297974,-0.5272988677024841
7.328567626953125,-0.0175999999046325,-3.6140999794006343,-12.03030014038086,0.1712342500686645,-0.079901173710823,-0.4645193815231323
7.348420654296875,-1.9192999601364136,-2.542799949645996,-10.246699333190918,-0.4548851549625397,-0.5050808191299438,-0.1233075112104415
7.368272216796875,-1.2497999668121338,-2.518199920654297,-7.563299655914307,-0.6200456619262695,-0.3959628343582153,0.4144109785556793
7.38812548828125,1.856899976730347,-4.419899940490723,-5.79670000076294,-0.587442934513092,-0.0597426183521747,0.5330759286880493
7.407978515625,2.79830002784729,-5.032899856567383,-2.4001998901367188,-0.2502976655960083,0.0960105583071708,0.265499472618103
7.427830078125,1.7448999881744385,-5.213699817657471,-2.1506998538970947,0.3818780481815338,0.1280373483896255,-0.0181165169924497
7.44768310546875,0.1196999996900558,-4.638299942016602,-3.6262998580932617,0.7683637738227844,-0.0263021122664213,-0.0957313105463981
7.467536376953125,-0.6292999982833862,-3.848299980163574,-5.678999900817871,0.8195891380310059,-0.0910363718867302,0.0555712841451168
7.487387939453125,0.428299993276596,-3.342599868774414,-7.058199882507324,0.4323005974292755,0.0301592890173196,0.0965516120195388
7.507240966796875,0.1274999976158142,-2.677500009536743,-2.604199886322021,0.0312413927167654,0.0321838706731796,0.0526914894580841
7.527093994140625,-0.952399969100952,0.2483999878168106,4.235499858856201,0.3995582163333893,-0.3719645738601684,-0.0742812156677246
7.54694580078125,-1.9531999826431277,3.462399959564209,4.775899887084961,0.932162880897522,-0.8366235494613647,0.1022413894534111
7.566798828125,-0.2219999879598617,5.159499645233154,3.3339998722076416,0.8021184206008911,-0.8773770332336426,0.3736575245857239
7.58665185546875,2.1277999877929688,5.462800025939941,6.009699821472168,0.667728066444397,-0.4123165905475616,0.4221078753471374
7.606505126953125,1.727999925613403,5.955100059509277,5.529999732971191,0.9476090669631958,0.3175626695156097,0.3190985321998596
7.6263564453125,0.4105999767780304,5.368599891662598,0.6227999925613403,0.0911410897970199,0.5762727856636047,0.1457000821828842
7.6462099609375,-1.190400004386902,3.4210000038146973,5.514599800109863,-1.6822705268859863,-0.3373372256755829,0.0858003869652748
7.66606298828125,-0.4088999927043915,1.4560999870300293,15.557099342346191,-1.5290480852127075,-0.6202725768089294,0.1319468915462494
7.68591455078125,0.2536999881267547,1.2889999151229858,13.56209945678711,0.373291015625,0.0959058403968811,-0.1410226076841354
7.705767578125,-1.1172999143600464,2.703399896621704,2.7804999351501465,1.1546399593353271,0.4898441135883331,-0.3604803085327148
7.725620849609375,-2.3125,3.382499933242798,-3.125499963760376,0.3885801136493683,0.0275936555117368,-0.3393618166446686
7.745472412109375,-1.2365999221801758,2.512899875640869,-2.2727999687194824,-0.4250923991203308,-0.5789605975151062,-0.1722116321325302
7.765325439453125,0.9912999868392944,0.6176999807357788,1.2775999307632446,-0.623187243938446,-0.6027320027351379,-0.0864461585879325
7.785177001953125,0.977999985218048,-0.2470999956130981,2.8436999320983887,-0.2433861643075943,-0.3661002516746521,-0.077161006629467
7.80503173828125,0.1263999938964843,-0.3068999946117401,1.7034000158309937,0.2911907434463501,-0.1822647303342819,0.0283615998923778
7.82488330078125,0.3102999925613403,-1.1658999919891355,-1.4006999731063845,0.561821460723877,0.0104894284158945,0.0426383949816226
7.84473486328125,0.1688999980688095,-1.3740999698638916,-1.142300009727478,0.8829271793365479,0.3869569599628448,0.0058293994516134
7.864587890625,-0.7371999621391296,-2.109099864959717,-3.624499797821045,0.8123984336853027,0.4743630290031433,-0.0016057029133662
7.884441162109375,-1.931299924850464,-1.465399980545044,-3.625399827957153,0.2740341424942016,-0.0806516632437706,0.0352032892405986
7.904292724609375,-1.722000002861023,-1.2806999683380127,-1.7275999784469604,0.1113170981407165,-0.4432612657546997,0.2393719106912613
7.924145751953125,0.3197000026702881,-1.7696999311447144,-2.383299827575684,0.240035131573677,-0.3207042515277862,0.2577851414680481
