seconds_elapsed,accel_x,accel_y,accel_z,gyro_x,gyro_y,gyro_z
0.222297119140625,-0.5339999794960022,-0.926099956035614,-2.4689998626708984,-0.1576730459928512,-0.5009793043136597,1.334932565689087
0.242148681640625,-0.5339999794960022,-0.926099956035614,-2.4689998626708984,-0.1576730459928512,-0.5009793043136597,1.334932565689087
0.262001953125,-0.0077999997884035,0.0259999986737966,0.0429999977350235,-0.1576730459928512,-0.5009793043136597,1.334932565689087
0.281853515625,0.245399996638298,-0.0885999947786331,1.6785999536514282,-0.1576730459928512,-0.5009793043136597,1.334932565689087
0.30170654296875,0.5845999717712402,-0.5127999782562256,3.1445000171661377,-0.1576730459928512,-0.5009793043136597,1.334932565689087
0.3215595703125,-0.2584999799728393,0.5489000082015991,1.4953999519348145,-0.1576730459928512,-0.5009793043136597,1.334932565689087
0.341411376953125,0.9632999897003174,0.4930999875068664,0.2800000011920929,-0.1576730459928512,-0.5009793043136597,1.334932565689087
0.361264404296875,2.16129994392395,-0.1129999980330467,2.0543999671936035,-0.1576730459928512,-0.5009793043136597,1.334932565689087
0.38111767578125,4.608399868011475,-1.8320999145507808,0.1454999893903732,-0.1466774642467498,-0.6891257762908936,0.8804488182067871
0.400968994140625,4.211699962615967,-0.901799976825714,0.1964999884366989,-0.1579522937536239,-0.794979989528656,0.5240002274513245
0.420822509765625,4.041100025177002,-1.294399976730347,-0.5015999674797058,0.0220086015760898,-0.2622880935668945,0.25235715508461
0.440675537109375,3.2049999237060547,-0.976099967956543,-1.0428999662399292,0.1558055430650711,0.200468510389328,0.0433888845145702
0.46052685546875,2.134700059890747,-0.9071999788284302,-2.674499988555908,0.0469144508242607,0.5857848525047302,-0.0077841682359576
0.480380126953125,1.1698999404907229,-1.174399971961975,-2.469899892807007,-0.143797680735588,1.0955954790115356,0.0393571741878986
0.5002314453125,0.4739999771118164,-1.3012999296188354,-0.6890000104904175,-0.2909463942050934,1.3073737621307373,0.0089709926396608
0.5200849609375,-0.0238999985158443,-1.868399977684021,1.0437999963760376,-0.6311459541320801,0.6002536416053772,-0.0590793937444686
0.53993798828125,-0.0829999968409538,-1.5328999757766724,1.4197999238967896,-0.4349011480808258,0.4339935779571533,-0.0767770335078239
0.559791015625,0.4831999838352203,-1.4330999851226809,0.5687999725341797,-0.2897246479988098,0.2241875380277633,-0.1042659655213356
0.579642578125,0.7427999973297119,-1.2380999326705933,-0.5232999920845032,-0.2276607453823089,0.1479690074920654,-0.1672025471925735
0.599495849609375,0.7288999557495117,-1.1549999713897705,-1.6598999500274658,-0.2672622799873352,0.0774228051304817,-0.2311688512563705
0.619348876953125,0.4693999886512756,-1.0663999319076538,-2.872499942779541,-0.4763003587722778,-0.0761836245656013,-0.2278527319431305
0.639200439453125,0.2137999981641769,-1.1489999294281006,-2.6259000301361084,-0.570705235004425,-0.1415112912654876,-0.186628058552742
0.659053466796875,0.0815999954938888,-1.2832000255584717,-2.3935999870300293,-0.4070282280445099,-0.1513724029064178,-0.1435707807540893
0.67890673828125,0.3859999775886535,-1.545300006866455,-3.128700017929077,-0.1282816976308822,-0.0584336221218109,-0.1884431988000869
0.698759765625,0.5827000141143799,-1.1446999311447144,-3.4621999263763428,0.048415433615446,0.0037699111271649,-0.3096912205219269
0.718611328125,-0.093299999833107,-0.2678999900817871,-3.218799829483032,0.0392000935971736,-0.1564338654279709,-0.3911457359790802
0.73846435546875,-0.0568999983370304,0.3091999888420105,-0.7354999780654907,0.0917345061898231,-0.3001442849636078,-0.3150493800640106
0.758317626953125,0.3518999814987182,0.8651999831199646,3.1110999584198,0.46298348903656,-0.1592089384794235,-0.2796191871166229
0.778169189453125,0.4223999977111816,1.4678999185562134,8.313799858093262,0.9733177423477172,0.1913578957319259,-0.2361954003572464
0.798022216796875,0.671999990940094,1.319599986076355,14.597399711608888,1.446284532546997,0.2927615344524383,-0.34454545378685
0.817875244140625,-0.8531000018119812,1.590999960899353,19.98819923400879,1.839769005775452,-0.0271747764199972,-0.611144483089447
0.83772705078125,-3.720999956130981,2.492300033569336,22.167499542236328,2.1934075355529785,-0.432108610868454,-0.5120272636413574
0.857580078125,-3.768399953842163,2.567600011825561,20.9822998046875,2.462642192840576,-0.8938180208206177,-0.4565955698490143
0.87743310546875,-5.243299961090088,4.431900024414063,16.393798828125,2.5420546531677246,-1.0405827760696411,-0.4261570274829864
0.89728466796875,-4.273399829864502,5.657899856567383,14.10159969329834,2.3187921047210693,-0.8013155460357666,-0.0952949747443199
0.9171376953125,-1.470699906349182,5.1528000831604,11.26959991455078,1.897679090499878,-0.8562236428260803,-0.0601614974439144
0.9369912109375,-0.0782999992370605,5.213299751281738,5.980400085449219,1.1077604293823242,-0.8554905652999878,-0.1208116933703422
0.97669580078125,2.0081000328063965,3.8021998405456543,-1.1193000078201294,-0.4050734639167785,0.961938202381134,-0.1710946261882782
0.996548828125,-1.39329993724823,0.5970999598503113,-2.0978000164031982,-0.8032528758049011,1.7431999444961548,-0.2143962383270263
1.016402099609375,-4.019199848175049,-1.7913999557495115,-2.701900005340576,-0.7186742424964905,0.9023002982139589,-0.17034412920475
1.036255126953125,-3.5832998752593994,-2.5425000190734863,-8.668000221252441,-0.4977329969406128,-0.5948430895805359,0.1108109503984451
1.056106689453125,0.9641000032424928,-4.070499897003174,-14.264100074768066,-0.6734178066253662,-1.2808797359466553,0.2824640870094299
1.075959716796875,3.1267998218536377,-5.099199771881104,-14.307299613952637,-0.659088671207428,-0.4559672772884369,0.0458498001098632
1.09581298828125,3.255699872970581,-5.661699771881104,-11.081199645996094,-0.1641656756401062,0.4979249835014343,-0.2923775613307953
1.11566455078125,2.081399917602539,-5.787199974060059,-10.380899429321287,0.3847927451133728,0.8254185318946838,-0.5803568959236145
1.135517578125,0.335999995470047,-5.072299957275391,-10.902599334716797,0.4878195226192474,0.6649006009101868,-0.7180808186531067
1.15537060546875,-1.8923999071121216,-4.230000019073486,-11.932499885559082,0.102415919303894,0.3800978064537048,-0.4242022633552551
1.175222412109375,-1.3380999565124512,-4.291199684143066,-11.291999816894531,-0.5720316767692566,0.4196993112564087,0.0171216800808906
1.195075439453125,0.3615999817848205,-5.33519983291626,-8.236599922180176,-0.9273458123207092,0.6532942056655884,0.1502030342817306
1.214928466796875,0.3127000033855438,-5.56279993057251,-5.555299758911133,-0.7509453892707825,0.8190131783485413,0.1245466917753219
1.234780029296875,0.2820999920368194,-5.203799724578857,-5.480599880218506,-0.3123964965343475,0.9929527044296264,0.1314407438039779
1.25463330078125,0.4287999868392944,-4.974800109863281,-7.166800022125244,-0.093863807618618,1.217070460319519,0.2195275127887725
1.274486328125,1.2137999534606934,-5.344799995422363,-8.321800231933594,-0.2094744145870208,1.1824780702590942,0.1791580468416214
1.29433935546875,1.3294999599456787,-5.773900032043457,-7.720499992370605,-0.5372647047042847,0.8745321035385132,-0.025028022006154
1.31419091796875,0.5056999921798706,-5.6554999351501465,-4.076900005340576,-0.3352603018283844,0.609626054763794,-0.1496619880199432
1.334044189453125,-0.9156000018119812,-4.762499809265137,-3.9151999950408936,0.3148573935031891,0.7098428606987,0.0433365255594253
1.353895751953125,-0.2717999815940857,-4.842400074005127,-5.975499629974365,0.6646388173103333,0.8797157406806946,0.2685712575912475
1.373748779296875,1.2073999643325806,-5.41540002822876,-7.11899995803833,0.3615972995758056,0.5542641878128052,0.1382126212120056
1.393601806640625,1.195599913597107,-6.210000038146973,-4.634200096130371,-0.0010297442786395,-0.1237612962722778,-0.1825788915157318
1.413453369140625,0.1885999888181686,-5.710999965667725,-2.256599903106689,0.1639213263988495,-0.363412469625473,-0.3977779746055603
1.433306640625,0.7847999930381775,-5.172499656677246,0.3181000053882599,0.7934615612030029,-0.159435823559761,-0.4486717879772186
1.453158203125,0.1940999925136566,-3.6920998096466064,1.477199912071228,1.33304762840271,-0.5249426960945129,-0.4457221925258636
1.47301123046875,3.0862998962402344,-1.7351999282836914,2.022899866104126,1.3697344064712524,-1.6486903429031372,-0.5587148070335388
1.492864501953125,5.8090996742248535,5.769700050354004,-1.5173999071121216,0.4969999492168426,-2.622863292694092,-0.8278445601463318
1.5127177734375,5.072199821472168,11.320799827575684,-2.383699893951416,-1.7175086736679075,-2.0500638484954834,-0.3742334842681885
1.5325693359375,-0.7268999814987183,8.9173002243042,11.258999824523926,-4.06061315536499,0.2543293833732605,0.4718323051929474
1.552423828125,-3.034799814224243,1.888399958610535,27.769899368286133,-3.801955461502075,0.3853163421154022,0.9610829949378968
1.572275390625,0.7400999665260315,-0.4849999845027923,26.539899826049805,-2.4026026725769043,-1.3667149543762207,0.113481305539608
1.592128662109375,-1.8765000104904173,3.60479998588562,11.90369987487793,-0.9764419198036194,-1.5644607543945312,-0.7541218400001526
1.611981689453125,-1.893499970436096,5.182399749755859,-1.5187000036239624,-1.044876217842102,0.4685859978199005,-0.8203920125961304
1.631833251953125,-2.307299852371216,4.065499782562256,-2.4129998683929443,-1.9398810863494875,1.656352400779724,-0.8995776176452637
1.651686279296875,-3.3732998371124268,2.5105998516082764,0.5898999571800232,-2.4394118785858154,1.8219317197799685,-0.8382467031478882
1.671537841796875,-2.8753998279571533,1.9907000064849851,5.0157999992370605,-2.0373401641845703,1.2755913734436035,-0.8075463771820068
1.69139111328125,-2.680799961090088,2.4835000038146973,3.130499839782715,-1.1398221254348757,0.4806462228298187,-0.6516186594963074
1.711244140625,-1.411099910736084,2.47409987449646,-1.6274999380111694,-0.6298020482063293,-0.0265290047973394,-0.3085916638374328
1.731095703125,0.2556999921798706,2.0162999629974365,-4.842599868774414,-0.5544736385345459,-0.3026750087738037,-0.0403520129621028
1.75094873046875,1.8188999891281128,1.1245999336242676,-5.334199905395508,-0.6155776381492615,-0.3251723051071167,-0.0104545224457979
1.770802001953125,1.6107999086380005,0.6948999762535095,-2.345599889755249,-0.3119950592517853,-0.2625673413276672,-0.0976686254143714
1.790653564453125,0.7701999545097351,0.7190999984741211,-1.7553999423980713,0.2217440754175186,-0.0849626287817955,-0.1315454691648483
1.810506591796875,-0.1036999970674514,0.9357999563217164,-1.837899923324585,0.5579991936683655,-0.1127831786870956,-0.1752485036849975
1.830359619140625,-0.7063999772071838,1.0791000127792358,0.5630999803543091,0.855438232421875,-0.3414387702941894,-0.0952251628041267
1.85021142578125,0.4485999941825866,0.3403999805450439,3.913800001144409,1.4046584367752075,-0.6240424513816833,-0.2690424919128418
1.870064453125,-1.1576999425888062,1.5411999225616455,4.648900032043457,2.2160794734954834,-0.5155004262924194,-0.5651724934577942
1.88991748046875,-2.764400005340576,3.243000030517578,5.212299823760986,2.924456119537353,-0.1820727437734604,-0.5425356030464172
1.9097705078125,-2.253900051116944,5.710299968719482,9.54319953918457,3.379166841506958,0.8399222493171692,-0.3909886479377746
1.929622314453125,-3.7286999225616455,8.340499877929688,15.70639991760254,3.6543877124786377,1.7042267322540283,-0.287926971912384
1.949475341796875,-6.289700031280518,9.421299934387209,19.03809928894043,2.946674346923828,1.341058611869812,0.2322160601615905
1.96932861328125,-3.083400011062622,6.512199878692627,22.640399932861328,2.1928839683532715,0.0934274718165397,0.2727949619293213
1.989179931640625,-0.8787999749183655,5.265699863433838,20.44820022583008,2.1825342178344727,0.0325852967798709,-0.1518785506486892
2.009033447265625,0.6150000095367432,4.928100109100342,10.500899314880373,2.3209736347198486,0.8943241834640503,-0.4996004998683929
2.028886474609375,-0.0027999999001622,5.0341997146606445,0.2918999791145324,1.5278786420822144,1.4117618799209597,-0.4384267032146454
2.048739501953125,0.5931999683380127,2.914599895477295,-7.573599815368652,-0.2892010509967804,1.2374210357666016,0.2066993415355682
2.068591064453125,4.56089973449707,-2.524399995803833,-2.838500022888184,-1.8730872869491575,1.0245954990386963,0.5045746564865112
2.0884443359375,6.255799770355225,-5.949899673461914,4.902199745178223,-1.5534303188323977,1.034578800201416,0.1860346496105194
2.10829736328125,5.1402997970581055,-6.851500034332275,5.56119966506958,-0.1494700014591217,0.468847781419754,-0.1677435934543609
2.12814892578125,3.775399923324585,-7.051799774169922,-0.5949000120162964,0.7678052186965942,-0.4736474454402923,-0.2620088160037994
2.148001953125,3.603399991989136,-7.041499614715576,-5.664000034332275,0.9625316262245178,-1.349924921989441,-0.2909463942050934
2.16785498046875,4.148099899291992,-6.254799842834473,-8.573200225830078,0.920731008052826,-1.7206153869628906,-0.2737548947334289
2.187706787109375,2.9210000038146973,-4.924499988555908,-10.279799461364746,0.7496363520622253,-1.5506901741027832,-0.2530378401279449
2.207559814453125,1.2278000116348269,-3.845999956130981,-11.65659999847412,0.3235840499401092,-1.3115625381469729,0.1296605169773101
2.227412841796875,1.8375999927520752,-4.152199745178223,-11.2253999710083,-0.2326174825429916,-1.3069897890090942,0.5024453997612
2.247265869140625,2.1261000633239746,-5.054599761962891,-10.071599960327148,-0.6223844289779663,-1.2455716133117676,0.5436875224113464
2.26711767578125,0.9850999712944032,-5.259200096130371,-8.466400146484375,-0.6107954382896423,-0.8763996362686157,0.4482878148555755
2.286970703125,-0.6970999836921692,-5.1753997802734375,-7.266499996185303,-0.4006054103374481,-0.449876070022583,0.3480012118816376
2.306822265625,-1.948599934577942,-5.031499862670898,-6.970900058746338,-0.2021614909172058,-0.3648087084293365,0.3974638283252716
2.32667529296875,-1.62309992313385,-5.310199737548828,-7.325500011444092,-0.1345474272966385,-0.5682617425918579,0.4360007047653198
2.346527099609375,-0.8429999947547913,-5.402999877929688,-8.232799530029297,-0.1242325380444526,-0.5310338735580444,0.3358536958694458
2.366380126953125,-1.4079999923706057,-5.3480000495910645,-8.499199867248535,-0.0867428630590438,-0.1045452207326889,0.2723760902881622
2.386233154296875,-1.790499925613403,-4.983999729156494,-7.892899990081787,0.0062657319940626,0.2633178234100342,0.3084345757961273
2.406084716796875,-1.5895999670028689,-4.850599765777588,-7.97790002822876,0.0581194646656513,0.3660304546356201,0.3858399391174316
2.425937744140625,-0.949999988079071,-4.697000026702881,-8.310400009155273,-0.0861669033765792,0.0769864693284034,0.3875503540039062
2.445791015625,-0.4928999841213226,-4.40339994430542,-8.270400047302246,-0.2752907872200012,-0.2609267234802246,0.3965038955211639
2.465642578125,0.4398999810218811,-4.129099845886231,-8.735799789428711,-0.3211580216884613,-0.1533446311950683,0.2698802649974823
2.485497314453125,-0.0171999987214803,-3.012699842453003,-7.175099849700928,-0.2595479190349579,0.6981666088104248,0.1197993978857994
2.5053505859375,-1.4987999200820925,-1.963499903678894,-1.109399914741516,0.1229933500289917,0.9669123888015748,0.1803099662065506
2.5252021484375,1.291100025177002,-1.6028000116348269,1.111199975013733,0.6237806677818298,-0.1796118319034576,0.1573588848114013
2.54505517578125,2.499799966812134,0.2089999914169311,-0.9939000010490416,0.2974390089511871,-1.0900628566741943,-0.1970302164554596
2.564908203125,2.0485999584198,3.046299934387207,1.9649999141693115,-0.0667588412761688,-1.023740291595459,-0.1678134053945541
2.584759765625,3.104099988937378,4.6844000816345215,6.168999671936035,-0.0838107094168663,-0.8755618929862976,0.0826936960220336
2.604611572265625,2.0927999019622803,3.646899938583374,5.225800037384033,-0.3388556838035583,-0.8091346621513367,0.1483355313539505
2.624464599609375,2.2207999229431152,2.885499954223633,7.422199726104736,-1.292294144630432,-0.992621123790741,0.2420422583818435
2.644317626953125,3.798099994659424,2.788800001144409,17.21259880065918,-1.2777904272079468,-1.4379593133926392,-0.039601519703865
2.664169189453125,4.215699672698975,4.418499946594238,19.126399993896484,0.4039215445518493,-1.1698766946792605,-0.5297597646713257
2.6840224609375,0.7073999643325806,7.222599983215332,8.856499671936035,1.0753672122955322,0.5218709111213684,-0.5659404397010803
2.70387548828125,-2.2958998680114746,7.369099617004394,7.019099712371826,0.1821425557136535,1.8061364889144895,-0.1272519528865814
2.723728515625,-3.0451998710632324,3.869799852371216,10.46840000152588,-0.7444003820419312,0.8387528657913208,-0.0912632644176483
2.74358154296875,-3.84309983253479,3.3733999729156494,12.223499298095703,-0.6354743838310242,-0.7563908100128174,-0.0649262443184852
2.763433349609375,-1.350000023841858,3.469099998474121,8.818099975585938,0.1025555431842804,-0.7897265553474426,0.1731715649366378
2.783286376953125,0.7674999833106995,3.4266998767852783,4.535900115966797,0.3851941525936126,0.082274816930294,0.263649433851242
2.803139404296875,0.2506999969482422,2.2605998516082764,1.153999924659729,0.033789575099945,0.7417474985122681,0.396922767162323
2.822990966796875,-0.1551999896764755,0.6024999618530273,-0.230799987912178,-0.7434579133987427,0.5109626054763794,0.5926265716552734
2.84284423828125,0.3125,-0.929099977016449,-0.4739999771118164,-1.4700384140014648,0.1047197580337524,0.7078531980514526
2.862697265625,0.9888999462127686,-1.896899938583374,-0.3585000038146972,-1.772748351097107,-0.0984889268875122,0.6871710419654846
2.88255029296875,0.9018999934196472,-2.27839994430542,-1.7940999269485474,-1.7943381071090698,0.0031241392716765,0.5552765130996704
2.902403564453125,0.2406999915838241,-2.2771999835968018,-2.966399908065796,-1.726392388343811,0.1935744732618332,0.4696680903434753
2.9222548828125,-0.2091999948024749,-2.4881999492645264,-3.1522998809814453,-1.6209046840667725,0.300004631280899,0.4599466025829315
2.9421083984375,0.461899995803833,-2.418299913406372,-2.113800048828125,-1.2182223796844482,0.3483502566814422,0.4262617528438568
2.961959716796875,0.3923999965190887,-2.3287999629974365,-2.477499961853028,-0.674552321434021,0.3131993412971496,0.2465975731611251
2.981812744140625,0.0081000002101063,-2.121799945831299,-3.767099857330322,-0.2782403826713562,0.1651081442832946,0.0458323471248149
3.001666015625,-0.2994999885559082,-1.899799942970276,-4.731400012969971,-0.0017453292384743,0.0466351956129074,-0.0563566796481609
3.021519287109375,-0.6115999817848206,-1.6212999820709229,-5.243299961090088,0.3756995797157287,0.1482831686735153,-0.0686787068843841
3.041370849609375,-0.8352999687194824,-1.588499903678894,-6.003099918365479,0.7654839754104614,0.1926319897174835,-0.0238062907010316
3.061223876953125,-1.1520999670028689,-1.3517999649047852,-6.821499824523926,1.0301282405853271,0.0476823933422565,-0.0187971964478492
3.081075439453125,-1.8775999546051023,-0.8485999703407288,-8.204299926757812,0.9936508536338806,-0.177901417016983,0.0550127774477005
3.1009287109375,-2.5703999996185303,-0.151199996471405,-6.397799968719482,0.8727693557739258,-0.1708851903676986,0.2812772691249847
3.12078173828125,-2.074199914932251,0.6484999656677246,-2.6071999073028564,1.1757760047912598,0.0171042270958423,0.5085016489028931
3.14063330078125,1.0720000267028809,1.2905999422073364,1.604099988937378,1.6521286964416504,0.1098859310150146,0.516617476940155
3.160486328125,3.249699831008911,4.89330005645752,3.4032998085021973,1.6666322946548462,0.1421919763088226,0.0796219184994697
3.180339599609375,0.1572999954223632,9.317999839782717,6.62559986114502,0.7358831763267517,0.8241095542907715,0.0566882938146591
3.200191162109375,1.0541999340057373,8.263599395751953,15.580399513244627,-0.19463911652565,0.9939650297164916,0.3441963791847229
3.220044189453125,4.302199840545654,6.297599792480469,20.782899856567383,-0.8168315291404724,0.6800326108932495,-0.4439594149589538
3.239897216796875,4.577600002288818,6.445799827575684,25.209400177001957,-0.6806958317756653,0.8008792400360107,-1.7452943325042725
3.25975048828125,0.9611999988555908,7.256399631500244,25.428098678588867,0.6249151229858398,1.7315236330032349,-2.962451934814453
3.27960205078125,-6.173399925231934,10.014100074768066,15.095099449157717,1.6950812339782717,2.780100107192993,-2.9939727783203125
3.299455078125,-7.665099620819092,10.233099937438965,3.0989999771118164,1.2253433465957642,3.0461928844451904,-2.0266764163970947
3.319306640625,-5.168099880218506,6.421199798583984,-2.92579984664917,-0.296705961227417,1.8270455598831177,-0.8476017117500305
3.339161376953125,2.7690999507904053,1.2401999235153198,-3.3394999504089355,-1.4152002334594729,-0.1665742248296737,-0.2809107303619385
3.359012939453125,5.428199768066406,-0.5716999769210815,-3.1407999992370605,-1.1484965085983276,-0.922773003578186,-0.355907529592514
3.378865966796875,4.410299777984619,-1.1026999950408936,-4.606199741363525,0.0634950771927833,-0.4257905185222626,-0.0069813169538974
3.398718994140625,6.144399642944336,-3.3396999835968018,-6.946699619293213,1.197278380393982,-0.0146607654169201,0.4132939577102661
3.418570556640625,5.845200061798096,-5.360799789428711,-10.057700157165527,1.7277363538742063,-0.1981123238801956,0.3943746089935303
3.438423828125,3.4276998043060303,-5.559700012207031,-12.675999641418455,1.5689637660980225,-0.7204195261001587,0.3978652656078338
3.458277099609375,1.8680999279022217,-5.522299766540527,-14.55109977722168,0.9513790011405944,-1.208902359008789,0.7025648355484009
3.47812841796875,2.444200038909912,-5.143599987030029,-15.250999450683594,0.0930434986948967,-1.008451223373413,0.8910254836082458
3.497981689453125,1.1554999351501465,-4.773200035095215,-12.727699279785156,-0.5556779503822327,-0.0697957128286361,0.998136341571808
3.5178349609375,0.4409999847412109,-5.52810001373291,-7.565099716186523,-0.7493221759796143,0.6118775010108948,1.3582675457000732
3.53768798828125,1.5291999578475952,-6.585000038146973,-3.9218997955322266,-0.4661599993705749,0.6510950922966003,1.4341545104980469
3.55753955078125,1.6165999174118042,-7.127199649810791,-4.923699855804443,-0.1700474321842193,0.3379306495189667,1.2310330867767334
3.577392578125,1.1090999841690063,-6.569900035858154,-6.481299877166748,-0.029461158439517,0.3663795292377472,1.1009187698364258
3.597245849609375,1.169399976730347,-6.460599899291992,-7.8954997062683105,0.0303338225930929,0.6804340481758118,1.0230422019958496
3.617097412109375,1.1303999423980713,-6.445799827575684,-8.402099609375,-0.0473682358860969,1.0312626361846924,0.9054244756698608
3.636950439453125,0.6198999881744385,-6.376599788665772,-7.299099922180176,-0.1290845572948455,1.1102213859558103,0.7376983165740967
3.656803466796875,-0.6243000030517578,-5.721999645233154,-6.123199939727783,-0.1057320460677146,0.826046884059906,0.6934716701507568
3.67665673828125,-0.7999999523162842,-4.854799747467041,-5.608999729156494,-0.0155334305018186,0.2372600585222244,0.7224266529083252
3.69650830078125,-0.316100001335144,-4.2281999588012695,-5.759899616241455,0.0720646455883979,-0.1596452593803405,0.6317568421363831
3.716361328125,-1.0017999410629272,-3.209399938583374,-4.186899662017822,0.1632580906152725,-0.1360484212636947,0.5173155665397644
3.736212890625,-1.2098000049591064,-1.3079999685287476,0.1432999968528747,0.5650328993797302,0.0797615498304367,0.3700796067714691
3.75606591796875,0.191100001335144,0.5950999855995178,8.39009952545166,1.3083685636520386,-0.3700272440910339,0.1600292325019836
3.775919189453125,3.145099878311157,4.421999931335449,10.81209945678711,2.179776668548584,-1.9807392358779907,-0.2902133464813232
3.795772216796875,2.708199977874756,7.457199573516846,3.920699834823608,2.01885724067688,-2.8187415599823,-0.2441191971302032
3.815623779296875,2.909199953079224,11.95319938659668,-5.0864996910095215,0.6601184010505676,-1.5698713064193726,0.3444930911064148
3.835476806640625,3.550099849700928,9.166899681091309,-5.235699653625488,-1.8656522035598757,0.6427524089813232,1.0240893363952637
3.855330078125,4.444200038909912,2.855899810791016,10.613200187683104,-3.0807156562805176,1.3879905939102173,0.7003307938575745
3.875181640625,2.030400037765503,0.2717999815940857,19.40279960632324,-2.062874555587769,0.809448778629303,-0.6205518245697021
3.89503466796875,-2.724599838256836,3.110499858856201,14.35099983215332,-0.6532418131828308,0.2887298166751861,-1.5176161527633667
3.9148876953125,-4.949399948120117,5.452600002288818,6.150599956512451,-0.415719985961914,0.4090877175331116,-1.5256969928741455
3.9347412109375,-4.998899936676025,5.175099849700928,2.5715999603271484,-0.6632425785064697,0.5173330307006836,-1.3369396924972534
3.954592529296875,-5.299299716949463,4.822400093078613,-0.4009999930858612,-0.8704655170440674,0.4354247450828552,-0.9165771007537842
3.97444580078125,-3.375699996948242,2.477499961853028,-2.6385998725891118,-1.1821638345718384,0.1706932038068771,-0.2927440702915191
3.994298828125,-0.2577999830245971,-0.429099977016449,-3.283900022506714,-1.5363959074020386,-0.2994461357593536,0.008848818950355
4.014150634765625,1.1425999402999878,-1.6348999738693235,-1.864199995994568,-1.4027036428451538,-0.324247270822525,-0.0123220244422554
4.034001953125,0.8503999710083008,-1.80649995803833,-2.1283998489379883,-0.8462403416633606,-0.1805368512868881,-0.0367740876972675
4.053856689453125,0.4217999875545501,-1.8542999029159544,-4.116699695587158,-0.3752283453941345,0.0443662703037261,0.0641932114958763
4.073708251953125,0.5807999968528748,-2.027400016784668,-5.167599678039551,-0.2042035162448883,0.1567305624485016,0.2841396033763885
4.0935595703125,1.299299955368042,-2.4714999198913574,-5.847300052642822,-0.2784847319126129,0.0631809160113334,0.2857103943824768
4.1134130859375,1.020900011062622,-2.1572999954223637,-4.172399997711182,-0.3752283453941345,-0.2288126647472381,0.1780584901571273
4.13326611328125,0.3479000031948089,-1.3521000146865845,-2.5623998641967773,-0.2364571988582611,-0.4624773561954498,0.1697158217430114
4.153119140625,0.0072999997064471,-0.3352999985218048,-3.024899959564209,-0.074647732079029,-0.4720068275928497,0.134041279554367
4.172972412109375,-1.4498999118804932,1.5561999082565308,-1.1096999645233154,0.0161442961543798,-0.0878075137734413,0.1772556453943252
4.192823974609375,-2.538800001144409,2.3032000064849854,4.028899669647217,0.3479662835597992,0.2301216572523117,0.3845483958721161
4.212677001953125,-2.765399932861328,2.281399965286255,7.231400012969971,0.494259774684906,-0.2904402315616607,0.6091722846031189
4.232530029296875,-1.5830999612808228,1.7105000019073486,10.004199981689451,0.2982593178749084,-1.472761154174805,0.6012135744094849
4.252381591796875,-0.9115999937057496,1.0892000198364258,15.045899391174316,0.7776314616203308,-1.712220311164856,0.4819377660751343
4.27223486328125,-0.0559999980032444,0.3317999839782715,16.107099533081055,1.9959585666656492,-0.7912275791168213,0.2833891212940216
4.29208642578125,0.1937000006437301,0.6067000031471252,12.259499549865724,2.3882737159729004,0.1817585825920105,0.0553269386291503
4.311939453125,0.5033000111579895,0.9144999980926514,13.89419937133789,1.8696664571762085,0.5303357243537903,-0.0503702014684677
4.33179248046875,0.066100001335144,0.946299970149994,16.167400360107422,1.5569733381271362,0.2842268645763397,-0.2418851852416992
4.351644287109375,-0.3705999851226806,1.723399996757507,13.461299896240234,1.5441800355911257,0.0142418863251805,-0.3627841472625732
4.371497314453125,-1.6878999471664429,3.058499813079834,6.659999847412109,1.1869460344314575,-0.1175479218363761,-0.2480985522270202
4.391350341796875,-0.4587999880313873,3.1572999954223637,-1.2584999799728394,0.1091528907418251,-0.008656833320856,0.2887821793556213
4.411203369140625,1.7005999088287354,0.85589998960495,-6.669999599456787,-1.570586919784546,0.3612831532955169,0.5799379944801331
4.431054931640625,2.5083999633789062,-1.505199909210205,-5.635799884796143,-3.0791797637939453,0.0861319974064827,0.3859097361564636
4.450908203125,1.1729999780654907,-0.6262999773025513,-2.471699953079224,-3.1859939098358154,0.0117111587896943,0.1278628259897232
4.47076123046875,-1.1526999473571775,2.107499837875366,-1.9356999397277832,-2.007582426071167,0.0555538311600685,0.2268404364585876
4.49061279296875,-2.7435998916625977,2.969099998474121,-6.964599609375,-0.8403411507606506,0.0015184364747256,0.7271215915679932
4.5104658203125,-0.5049999952316284,2.5023999214172363,-14.337899208068848,-0.8845154047012329,0.0693593844771385,1.269709587097168
4.5303193359375,2.757999897003174,0.8952999711036682,-11.954400062561035,-1.6263675689697266,0.0377689264714717,1.2976871728897097
4.55017236328125,2.213500022888184,0.002199999988079,-5.736700057983398,-1.3238846063613892,0.0139102740213274,0.985185980796814
4.57002392578125,0.4213999807834625,-0.3797999918460846,-4.134999752044678,-0.3236713111400604,0.07370525598526,0.8940798044204712
4.589876953125,-0.2906999886035919,-1.126099944114685,-6.73829984664917,0.2899864614009857,-0.038606684654951,0.8808676600456238
4.609730224609375,-0.4533999860286712,-1.9921000003814695,-9.245599746704102,0.1595056354999542,-0.100775308907032,0.952077090740204
4.629581787109375,0.7881999611854553,-3.283900022506714,-7.643599987030029,-0.2035577446222305,0.2608045637607574,0.9423556327819824
4.649434814453125,1.389699935913086,-3.8026998043060303,-4.060999870300293,-0.1215447261929512,0.4435928761959076,0.6609212756156921
4.669287841796875,0.8988999724388123,-4.190199851989746,-1.4929999113082886,0.4337317645549774,0.4418300986289978,0.3429920971393585
4.68914111328125,-0.4212999939918518,-3.924099922180176,-2.3831000328063965,1.2851382493972778,0.3840596973896026,0.2443984597921371
4.70899267578125,-1.117799997329712,-3.908499956130981,-6.096099853515625,1.8351613283157349,0.5752779841423035,0.4083372354507446
4.728845703125,-0.6266999840736389,-4.414499759674072,-8.736700057983398,1.9169299602508545,0.8823337554931641,0.6598566174507141
4.74869873046875,0.8132999539375305,-5.239699840545654,-9.980999946594238,1.5657174587249756,0.8109323382377625,0.6336941719055176
4.768550537109375,1.4275999069213867,-5.8302998542785645,-9.72819995880127,0.9868091344833374,0.4260523319244385,0.3603755831718445
4.788403564453125,-0.5977999567985535,-5.201999664306641,-7.331299781799316,0.7207337021827698,0.2663372457027435,0.2071705758571624
4.808256591796875,-0.7033999562263489,-4.733500003814697,-5.450299739837647,0.9981886744499208,0.6036744713783264,0.3418751060962677
4.828108154296875,1.7799999713897705,-4.142899990081787,-4.477200031280518,1.2405800819396973,1.0262885093688965,-0.0841772258281707
4.84796142578125,-0.222800001502037,-2.812000036239624,0.5216999650001526,1.2734969854354858,0.7035945653915405,-0.5287474989891052
4.867814453125,-0.7667999863624573,1.5525000095367432,7.294699668884277,2.175570249557495,-0.2190737277269363,-0.5948605537414551
4.887666015625,1.7809998989105225,4.323899745941162,2.2983999252319336,2.9822440147399902,-0.8565377593040466,-0.6177243590354919
4.90751904296875,4.086199760437012,8.822699546813965,-6.300699710845947,1.5133051872253418,-0.6182130575180054,-0.6053325533866882
4.927372314453125,3.784099817276001,10.289799690246582,-5.974199771881104,-1.2316962480545044,0.3884928226470947,-0.3603057563304901
4.947223876953125,0.5026000142097473,6.828399658203125,8.231999397277832,-2.9684908390045166,1.590256690979004,-0.090250976383686
4.967076904296875,-2.470499992370605,3.067499876022339,20.49449920654297,-2.503535270690918,1.4857813119888306,0.0555189214646816
4.986929931640625,-1.3589999675750732,2.851599931716919,19.799299240112305,-0.9800023436546326,0.2544690072536468,-0.0396189726889133
5.006783203125,-1.914099931716919,4.810999870300293,7.4918999671936035,-0.6247406005859375,-0.0567581057548522,-0.2510132491588592
5.026634765625,-2.415699958801269,5.180799961090088,1.8396999835968015,-1.4901098012924194,-0.0170169603079557,0.081157810986042
5.046488037109375,-0.0650999993085861,2.398399829864502,2.175999879837036,-2.2127108573913574,-0.3243519961833954,0.3094992339611053
5.066341064453125,2.1131999492645264,0.1972000002861023,3.2730000019073486,-2.1665470600128174,-0.399837464094162,0.1550375968217849
5.086194091796875,2.077800035476685,-0.6247000098228455,5.4776997566223145,-1.2680165767669678,-0.05948081985116,-0.1585806161165237
5.1060458984375,0.6777999997138977,-0.1172999963164329,3.243000030517578,0.0415911972522735,0.1990198940038681,-0.326411485671997
5.12589892578125,-0.3193999826908111,0.2158999890089035,-2.319799900054932,0.6497162580490112,0.2172411382198333,-0.2102074474096298
5.145751953125,0.0099999997764825,-0.3134999871253967,-6.121099948883057,0.482566088438034,0.0431445389986038,-0.0344353467226028
5.165603515625,0.7250999808311462,-1.5921999216079712,-6.350899696350098,0.019442968070507,-0.2239431887865066,0.0368264466524124
5.185455078125,0.5446000099182129,-2.341599941253662,-3.4612998962402344,0.0663748681545257,-0.2183232307434082,-0.0285012274980545
5.205309814453125,-0.1485999971628189,-2.3424999713897705,-2.018499851226806,0.683331310749054,0.0876329839229583,-0.0173485726118087
5.225161376953125,-0.1136000007390976,-2.21370005607605,-3.149399995803833,1.2317661046981812,0.2888694405555725,0.1155757009983062
5.245014404296875,1.481899976730347,-2.228299856185913,-4.004899978637695,1.494752287864685,0.4318118989467621,-0.0018500490114092
5.26486767578125,1.1797999143600464,-0.3095999956130981,-3.990899801254273,1.5311598777770996,0.398703008890152,-0.1361182332038879
5.284720703125,1.924499988555908,2.071699857711792,-2.896699905395508,1.1405726671218872,0.1372003257274627,-0.1617571115493774
5.304572265625,1.442699909210205,5.119100093841553,4.028899669647217,0.933594048023224,0.5615596771240234,-0.2458819895982742
5.324423828125,-1.0708999633789062,8.273099899291992,11.338500022888184,1.4948920011520386,1.0755242109298706,-0.3415260314941406
5.34427685546875,-4.93619966506958,9.885899543762209,9.987099647521973,1.0949846506118774,0.5641078948974609,-0.2066644430160522
5.364130126953125,-5.062699794769287,9.50189971923828,16.20870018005371,0.1528384834527969,0.2531599998474121,0.1344252526760101
5.383983154296875,-2.316499948501587,6.4054999351501465,21.66849899291992,0.5694485902786255,0.1771334707736969,-0.2139773666858673
5.403834716796875,-3.824100017547608,6.898299694061279,16.12529945373535,1.4571579694747925,0.5509131550788879,-0.9194219708442688
5.423687744140625,-7.903899669647217,7.488199710845947,5.729399681091309,1.1125775575637815,1.2200374603271484,-0.6580938696861267
5.443541015625,-6.315899848937988,3.6101999282836914,-0.4003999829292297,-0.5756619572639465,1.005553960800171,0.1519658118486404
5.463392578125,-1.5959999561309814,-1.0231999158859253,-0.527899980545044,-2.1507344245910645,0.2274338603019714,0.4268202781677246
5.48324560546875,1.4812999963760376,-4.600100040435791,2.5634000301361084,-2.4331984519958496,-0.3234967887401581,0.1648288965225219
5.5030986328125,3.3452999591827397,-4.432699680328369,4.294600009918213,-1.168567776679993,-0.7421140074729919,-0.1981821358203888
5.522950439453125,3.087599992752075,-3.6751999855041504,-1.247499942779541,0.5455026626586914,-1.0602351427078247,-0.2275734841823578
5.542803466796875,3.8025999069213863,-3.4151999950408936,-9.527400016784668,1.168567776679993,-0.9087056517601012,-0.049951322376728
5.56265673828125,5.972899913787842,-3.875899791717529,-13.527199745178224,0.8195018768310547,-0.7530746459960938,-0.0390255637466907
5.582508056640625,6.17609977722168,-3.390299797058105,-11.84939956665039,0.1178097277879715,-0.9726370573043824,-0.34091517329216
5.602361572265625,3.2445998191833496,-2.4646999835968018,-9.03499984741211,-0.0834790989756584,-1.2455192804336548,-0.550232470035553
5.622214599609375,-0.2428999990224838,-1.6598999500274658,-7.467199802398682,0.1731192022562027,-1.319399118423462,-0.3312634825706482
5.642066162109375,-0.9247999787330629,-1.8634999990463257,-9.14229965209961,0.433627039194107,-0.7937408089637756,0.2452362179756164
5.661919189453125,1.1890000104904177,-3.70199990272522,-10.56149959564209,0.2053205370903015,-0.1624028831720352,0.5672145485877991
5.6817724609375,3.035599946975708,-5.532399654388428,-9.960999488830566,-0.4002563655376434,0.0611388832330703,0.3557155430316925
5.7016240234375,2.166699886322021,-6.265100002288818,-5.987299919128418,-0.786270797252655,-0.1157153323292732,-0.0175056532025337
5.72147705078125,0.3847000002861023,-6.438999652862549,-2.7695000171661377,-0.4149694740772247,-0.2358987033367157,-0.144932135939598
5.741330078125,-0.8417999744415283,-7.087899684906006,-3.009999990463257,0.2893756031990051,-0.1843940317630767,-0.0336499474942684
5.76118310546875,-0.51419997215271,-7.847999572753906,-5.20580005645752,0.7881906628608704,0.0038746309000998,0.0668810158967971
5.781034912109375,-0.1006999984383583,-7.862599849700928,-6.503900051116943,0.9317614436149596,-0.0964294373989105,-0.0453611053526401
5.800887939453125,-1.09089994430542,-7.071199893951416,-7.627599716186523,0.8331678509712219,-0.5900608897209167,-0.0399680398404598
5.820740966796875,-1.1155999898910522,-6.008399963378906,-8.545100212097168,0.5155178904533386,-1.1267322301864624,0.1476548612117767
5.840592529296875,-0.4287999868392944,-5.224400043487549,-8.498700141906738,0.1525941342115402,-1.420348882675171,0.440067321062088
5.86044580078125,1.795300006866455,-5.007400035858154,-7.290499687194824,-0.146310955286026,-1.327288031578064,0.6030112504959106
5.880298828125,3.884199857711792,-3.901299953460693,0.3400000035762787,-0.0050440016202628,-0.8765916228294373,0.3007027804851532
5.900150390625,4.087199687957764,0.0020999999251216,7.377799987792969,0.9230348467826844,-1.055732250213623,-0.3824714422225952
5.92000341796875,0.5087999701499939,5.220999717712402,4.692500114440918,1.4039254188537598,-1.64375102519989,-0.5845282077789307
5.939856689453125,0.1720999926328659,10.449699401855469,-0.7840999960899353,-0.0106116021052002,-1.1954283714294434,0.100059725344181
5.959709716796875,2.3018999099731445,10.608200073242188,5.135799884796143,-1.9467402696609497,-0.0200363788753747,0.4166449904441833
5.979561279296875,0.6541000008583069,8.451499938964844,18.26490020751953,-2.569159507751465,0.5584878921508789,0.4915196299552917
5.999414306640625,3.205399990081787,5.106899738311768,20.6830997467041,-1.8752166032791135,-0.1597848981618881,-0.1033933013677597
6.019265869140625,2.9363999366760254,4.840499877929688,15.636699676513672,-0.7051828503608704,-0.2826386094093323,-1.1465766429901123
6.039119140625,-0.8226000070571899,4.669300079345703,5.43720006942749,0.4076216518878937,0.5699023604393005,-1.529990553855896
6.05897216796875,-2.950700044631958,4.322700023651123,-7.16949987411499,-0.2359859645366668,1.3328206539154053,-1.1714125871658323
6.07882373046875,-2.9482998847961426,1.2136999368667605,-9.508999824523926,-2.6260223388671875,1.1567344665527344,-0.5590638518333435
6.0986787109375,-0.424699991941452,-2.906399965286255,0.9488999843597412,-4.03610897064209,0.4664916098117828,-0.1838355362415313
6.1185302734375,2.902599811553955,-4.245999813079834,9.637100219726562,-3.2389471530914307,0.1095019578933715,-0.4936663806438446
6.13838330078125,2.165699958801269,-3.11929988861084,7.167399883270264,-1.4892719984054563,0.1490162163972854,-1.1235382556915283
6.15823486328125,0.2483000010251999,-0.1771999895572662,4.376499652862549,0.547143280506134,0.5687504410743713,-1.058664321899414
6.178087890625,-0.7177000045776367,-0.2372999936342239,-5.5169997215271,0.925199031829834,0.3167423605918884,-0.7884873747825623
6.197941162109375,0.6444999575614929,-0.6315999627113342,-8.214499473571777,0.0921184793114662,-0.4176572859287262,-0.5689598917961121
6.217792724609375,1.1927000284194946,-1.5083999633789062,-5.950999736785889,-0.4927762448787689,-1.0172652006149292,-0.4687256217002868
6.237645751953125,1.673999905586243,-1.999099969863892,-2.674999952316284,-0.0929213315248489,-0.9012356400489808,-0.4402069449424743
6.257497314453125,2.0349998474121094,-2.1805999279022217,-2.81499981880188,0.7953639626502991,-0.425528734922409,-0.5645965337753296
6.2773505859375,1.2170000076293943,-1.421899914741516,-5.181699752807617,1.2074711322784424,-0.1614778637886047,-0.6958802342414856
6.29720361328125,0.3709000051021576,-0.2924000024795532,-3.5855000019073486,1.1389669179916382,-0.1282991468906402,-0.6008993983268738
6.31705517578125,-0.6311999559402466,0.3012999892234802,2.207099914550781,1.5451574325561523,-0.1062730997800827,-0.3769212961196899
6.336908203125,0.5008000135421753,3.5107998847961426,4.33489990234375,2.443687915802002,-0.1202706396579742,-0.3960501253604889
6.356762939453125,-0.6298999786376953,5.357500076293945,2.2448999881744385,2.247879266738892,-0.1885479241609573,-0.1085071191191673
6.376614501953125,0.7608000040054321,6.615699768066406,7.507499694824219,1.222428560256958,0.6734527349472046,0.1010196581482887
6.396467529296875,-1.1337000131607056,4.95580005645752,16.7239990234375,0.8745495676994324,1.469462513923645,0.0456054545938968
6.416320556640625,-6.359099864959717,3.1893999576568604,24.167200088500977,1.272659182548523,0.3425557613372803,0.0498466044664382
6.456025390625,1.2121999263763428,5.613399982452393,10.687399864196776,1.1428066492080688,-2.2465178966522217,-0.5492900013923645
6.47587841796875,-1.0845999717712402,7.608699798583984,8.869999885559082,0.7746294736862183,-0.8862782120704651,-0.6520375609397888
6.49572998046875,-3.4068000316619877,4.393499851226807,-1.424799919128418,-0.010349802672863,-0.0989252626895904,-0.2050587385892868
6.5155830078125,-2.7086000442504883,0.1906999945640564,-8.625899314880371,-1.7216626405715942,-0.2975611686706543,0.6495940685272217
6.535434814453125,3.998600006103516,-4.451299667358398,-10.113800048828123,-3.5551483631134038,-0.7964460849761963,0.5693264007568359
6.55528955078125,4.511799812316895,-5.793799877166748,0.3511999845504761,-3.611208438873291,-0.4853760600090027,-0.3032858669757843
6.57514111328125,0.3159999847412109,-2.1710000038146973,5.567599773406982,-1.2403706312179563,0.0145560456439852,-1.1168885231018066
6.594994140625,-4.924799919128418,0.8572999835014343,-3.069399833679199,1.2378573417663574,0.3736051917076111,-0.8599586486816406
6.614845703125,-4.5406999588012695,0.1932999938726425,-13.132899284362791,2.1928491592407227,1.305069923400879,-0.05574581772089
6.634698974609375,-0.8677999973297119,-2.099599838256836,-18.400299072265625,1.6086350679397583,1.3883047103881836,0.3100926578044891
6.654552001953125,-0.5913999676704407,-2.784099817276001,-18.70119857788086,0.1234820410609245,0.5929930806159973,0.4871388375759125
6.674405029296875,-0.8867999911308289,-4.293099880218506,-16.264598846435547,-1.3889155387878418,-0.0566708408296108,0.6531545519828796
6.6942568359375,1.2761999368667605,-6.357500076293945,-10.312199592590332,-2.0028176307678223,-0.2438573986291885,0.8494517207145691
6.71410986328125,1.007599949836731,-6.620899677276611,-3.715099811553955,-1.783220291137695,0.4222823977470398,0.7717846035957336
6.733962890625,0.264299988746643,-6.831999778747559,0.7766000032424927,-1.2587664127349854,-0.0039968038909137,0.6245136857032776
6.753814453125,0.0266999993473291,-5.202600002288818,0.821399986743927,-0.71097731590271,-0.3794520199298858,0.6433109045028687
6.773667724609375,0.362199991941452,-4.418900012969971,-0.7882999777793884,-0.3292039930820465,-0.3681248426437378,0.7031582593917847
6.793520751953125,1.3420000076293943,-4.022799968719482,-2.312000036239624,0.1696809083223343,0.1575508713722229,0.7006624341011047
6.813373779296875,3.607399940490722,-5.017699718475342,-3.3444998264312744,0.5338264107704163,0.2965139746665954,0.3215943574905395
6.833225341796875,2.3130998611450195,-4.517399787902832,-4.306699752807617,0.7427772283554077,0.0699702501296997,-0.0720297396183013
6.85307861328125,1.860599994659424,-4.015900135040283,-5.197400093078613,0.9388474822044371,-0.3165154457092285,-0.2355321794748306
6.87293017578125,2.564499855041504,-3.859499931335449,-6.372799873352051,1.1262434720993042,-0.5117654204368591,-0.3845658600330353
6.892783203125,1.8986999988555908,-2.5164999961853027,-8.08549976348877,1.4344686269760132,-0.0115191731601953,-0.5191307067871094
6.91263623046875,-0.2166000008583068,-0.7404999732971191,-6.522500038146973,1.5710406303405762,0.7857123017311096,-0.469877541065216
6.932489501953125,-3.6664998531341553,3.2054998874664307,1.3736000061035156,1.378164291381836,-0.0473507829010486,-0.1609542667865753
6.952341064453125,-3.459699869155884,4.635799884796143,1.3844999074935913,1.2028634548187256,-0.7828150987625122,0.1622458100318908
6.972194091796875,-1.0513999462127686,6.66349983215332,2.247799873352051,0.7343822121620178,-0.5837951898574829,0.2722539007663727
6.992045654296875,1.6103999614715576,7.696499824523926,3.619699954986572,0.1821251064538955,0.3081378638744354,0.263300359249115
7.011898681640625,-0.2387999892234802,5.019499778747559,3.7221999168396,-0.285047173500061,1.9977039098739624,0.1406386345624923
7.031751953125,-5.12969970703125,4.100599765777588,7.799499988555908,-1.2341572046279907,2.054427146911621,0.0299323964864015
7.051605224609375,-3.1892998218536377,4.613500118255615,11.471099853515623,-1.6987987756729126,-0.5267927050590515,0.5088332891464233
7.071458251953125,1.5620999336242676,3.69629979133606,8.715899467468262,-2.2900290489196777,-1.8027855157852173,0.2782927453517914
7.091309814453125,0.4549999833106994,4.299799919128418,10.858299255371094,-2.1905975341796875,-0.9799849390983582,0.2632829248905182
7.1111630859375,1.087999939918518,2.526700019836426,10.745699882507324,-1.4035588502883911,-0.1948660165071487,0.3759788274765014
7.1310146484375,2.32229995727539,0.5496000051498413,5.35260009765625,-0.7982961535453796,-0.2517986595630646,0.1143539696931839
7.15086767578125,1.6302999258041382,0.2465000003576278,-0.0666999965906143,-0.5508084297180176,-0.2816088795661926,-0.1603957563638687
7.170720703125,1.948300004005432,-0.490799993276596,-3.1176998615264893,-0.5293234586715698,-0.2042733281850814,-0.3646341860294342
7.190573974609375,1.8265999555587769,-0.8982999920845032,-4.684799671173096,-0.7201752066612244,-0.1098859310150146,-0.7418172955513
7.210425537109375,-1.0219999551773071,0.199099987745285,-3.952999830245972,-0.7915242910385132,-0.0668810158967971,-0.631512463092804
7.230278564453125,-1.402899980545044,0.2221999913454055,-2.009199857711792,-0.6802071928977966,-0.1348965018987655,-0.2281145304441452
7.250131591796875,-0.2418999969959259,-0.6171000003814697,-1.1527999639511108,-0.3643723726272583,-0.3063227236270904,0.0489215776324272
7.269983154296875,0.5223999619483948,-0.9047999978065492,-1.9174000024795528,0.0307876076549291,-0.1635548025369644,0.1811302751302719
7.28983642578125,1.341099977493286,-1.1649999618530271,-3.1504998207092285,0.3593981862068176,0.217502936720848,0.2451838552951812
7.309689453125,2.987599849700928,-1.1212999820709229,-3.965499877929688,0.5344721674919128,0.4473627805709839,0.0899193659424781
7.32954248046875,3.6571998596191406,-0.6283999681472778,-4.196700096130371,0.5522047281265259,0.395072728395462,-0.129992127418518
7.34939404296875,3.168099880218506,0.2834999859333038,-3.4733998775482178,0.4721464812755584,0.294437050819397,-0.3088360130786896
7.369247314453125,1.9895999431610107,0.9164999723434448,-4.952300071716309,0.3406708240509033,0.3984412252902984,-0.2482730895280838
7.389100341796875,0.0987999960780143,1.3669999837875366,-1.6649999618530271,-0.1589471399784088,0.9501048922538756,0.0222529470920562
7.408951904296875,0.4876999855041504,0.3840999901294708,1.9859999418258667,-0.2214473783969879,1.0994876623153689,0.1721941828727722
7.428804931640625,0.0269999988377094,0.1953999996185302,6.175899982452393,0.3439171314239502,0.9783443212509156,0.2015680819749832
7.448658203125,0.8854999542236328,-0.0835999995470047,4.630300045013428,1.052398681640625,0.2838254272937774,0.1397136002779007
7.468509765625,0.9596999883651732,0.7996000051498413,1.746999979019165,1.0345438718795776,-0.5223246812820435,-0.060178954154253
7.48836279296875,-1.3916999101638794,2.985499858856201,3.923499822616577,0.9429141283035278,-0.7696378231048584,0.0537910461425781
7.5082158203125,-0.5853999853134155,2.5020999908447266,9.07800006866455,1.5332891941070557,-0.2225992977619171,0.3974638283252716
7.528067626953125,1.6830999851226809,1.890399932861328,9.92739963531494,2.408536911010742,0.1068490594625473,0.1741314977407455
7.54792236328125,-0.3005000054836273,3.9938998222351074,6.046499729156494,2.200615882873535,-0.3862762749195099,0.0444360822439193
7.56777392578125,-0.9176999926567078,5.643899917602539,7.186100006103516,1.2334067821502686,-1.1118619441986084,0.2524618804454803
7.587626953125,-0.4943999946117401,5.0488996505737305,9.2677001953125,0.7147821187973022,-1.583013653755188,0.3017674386501312
7.607478759765625,-1.098699927330017,4.752999782562256,5.9593000411987305,0.4308170676231384,-1.564233899116516,0.2543642818927765
7.627331787109375,-0.0055999998003244,3.8945000171661377,-0.3357000052928924,-0.3413689434528351,-0.8088379502296448,0.2997952103614807
7.647184814453125,1.1571999788284302,1.4085999727249146,-2.989799976348877,-1.2086929082870483,0.2701071500778198,0.3406184613704681
7.667036376953125,2.087300062179565,-1.8644999265670776,-3.473099946975708,-1.7108938694000244,1.1070623397827148,0.0063180918805301
7.6868896484375,-1.604699969291687,-1.723599910736084,-2.7021000385284424,-1.9721522331237795,1.0963634252548218,-0.4310963153839111
7.70674267578125,-3.999099969863892,-1.574199914932251,-2.5931999683380127,-2.056102514266968,0.2863212525844574,-0.5760807991027832
7.72659423828125,-2.8227999210357666,-1.4401999711990356,-1.681399941444397,-1.7670586109161377,-0.0140848066657781,-0.6010739207267761
7.746447265625,-1.6483999490737915,-1.4246000051498413,-0.6395999789237976,-0.7881034016609192,0.6468364596366882,-0.5446823239326477
7.76630029296875,-0.2700999975204468,-2.052299976348877,-1.3198999166488647,0.4159294068813324,1.0995923280715942,-0.5736896991729736
7.786153564453125,-0.1744999885559082,-2.13949990272522,-3.7544000148773193,1.1639950275421145,0.9680468440055848,-0.5445252656936646
7.806005126953125,-0.555400013923645,-2.0276999473571777,-7.0341997146606445,1.2371940612792969,0.4995830357074737,-0.4019144177436828
7.825858154296875,-0.7549999952316284,-2.2493999004364014,-8.089300155639648,0.8965756297111511,0.0879995003342628,-0.1226442828774452
7.845711181640625,0.4587999880313873,-3.3867998123168945,-7.308399677276611,0.6419669985771179,-0.007435102481395,0.1735555380582809
7.86556298828125,1.5961999893188477,-4.525099754333496,-6.494899749755859,0.587058961391449,0.1053829789161682,0.2812598049640655
7.885416015625,1.7591999769210815,-5.292299747467041,-5.713699817657471,0.5652946829795837,0.166347324848175,0.2755700349807739
7.905267578125,0.7257999777793884,-5.015500068664551,-5.7565999031066895,0.5439143776893616,0.078260563313961,0.233856663107872
7.92512060546875,0.0843999981880188,-4.66510009765625,-5.694299697875977,0.6473251581192017,0.1384046077728271,0.3072302937507629
7.944972412109375,0.7771999835968018,-4.88070011138916,-6.383299827575684,0.7068060040473938,0.1142841577529907,0.2751685976982116
7.964826904296875,0.2236999869346618,-4.162600040435791,-5.622699737548828,0.5941100716590881,-0.1399753987789154,0.1920909434556961
7.984678466796875,1.0419999361038208,-3.6106998920440674,-3.946099996566773,0.4699997007846832,-0.271224170923233,0.0228987205773592
8.004531494140625,0.64410001039505,-2.08519983291626,-1.559499979019165,0.5058138966560364,-0.1022937446832656,-0.225147470831871
8.024385009765625,-1.521299958229065,0.1056999936699867,3.1780998706817627,0.6632076501846313,-0.0129677960649132,-0.2416582852602005
8.044236328125,-2.023099899291992,2.9701998233795166,7.231099605560303,1.288175106048584,-0.3905174136161804,0.108751468360424
8.06408935546875,-0.7418000102043152,4.355000019073486,2.3671000003814697,1.4387098550796509,-0.5106309652328491,0.41252601146698
8.08394091796875,1.1791999340057373,5.267600059509277,-0.3441999852657318,0.7259522676467896,-0.1492605507373809,0.5643347501754761
8.1037939453125,1.405900001525879,5.383399963378906,-0.4444999992847442,0.200433611869812,0.8855625987052917,0.3806912004947662
8.1236474609375,0.8720999956130981,4.27209997177124,-1.154099941253662,-0.9701586961746216,1.3487730026245115,-0.0375943928956985
8.143498779296875,-2.215399980545044,3.3515000343322754,5.842099666595459,-2.227860450744629,0.5239303708076477,-0.2386563271284103
8.16335205078125,-3.166699886322021,3.0741000175476074,13.466300010681152,-1.6555320024490356,-0.0875980779528617,-0.0874060913920402
8.183205078125,-2.0608999729156494,3.414999961853028,8.935999870300293,-0.622803270816803,-0.3847403824329376,-0.1171639487147331
8.203058349609375,-0.0392999984323978,2.694399833679199,3.369499921798706,-0.4951673746109009,-0.2308197915554046,-0.2932502329349518
8.222909912109374,0.2730999886989593,1.7716999053955078,1.9180999994277956,-0.4282514452934265,-0.0124092912301421,-0.3454181253910064
8.242762939453126,0.0368999987840652,1.010699987411499,0.0439999997615814,-0.2274163961410522,0.2205921560525894,-0.1328544616699218
8.262615966796876,0.7734999656677246,0.1758999973535537,-1.7730998992919922,-0.1474977731704712,0.2927266359329223,0.0918392241001129
8.2824677734375,0.446399986743927,-0.0866999998688697,-1.6868999004364014,-0.0654847547411918,0.3185749351978302,0.1642878353595733
8.30232080078125,0.2425999939441681,-0.3147999942302704,-1.8357999324798584,0.0100007364526391,0.0474555008113384,0.1757022887468338
8.322173828125,1.0830999612808228,-0.878600001335144,-1.4707999229431152,0.0759567320346832,-0.1958608478307724,0.0726929605007171
8.34202685546875,0.6611999869346619,-1.1175999641418457,-1.0535999536514282,0.3094817698001861,0.004834562074393,-0.0198443941771984
8.361878662109374,0.4581999778747558,-1.5094000101089478,-0.5175999999046326,0.5111371278762817,0.2777167856693268,-0.0137706473469734
8.381731689453124,0.3070999979972839,-1.6971999406814575,-0.6886000037193298,0.5710368156433105,0.2798810005187988,0.0302640087902545
8.401584716796876,-0.0256999991834163,-1.3157999515533447,-1.684899926185608,0.4681845605373382,0.1088561862707138,0.0895004868507385
8.421436279296875,-0.5590999722480774,-1.2817999124526978,-2.774099826812744,0.5669353008270264,0.2714161574840545,0.1142667084932327
8.44128955078125,-1.2374999523162842,-0.1645999997854232,-3.268699884414673,-0.0408756099641323,0.1617047488689422,0.2030341476202011
8.461142578125,-0.8258000016212463,-0.7116000056266785,-0.8579999804496765,-0.694623589515686,-0.0859923735260963,0.2489886730909347
8.480994140625,0.0526999980211257,-1.1297999620437622,2.7040998935699463,-0.6744126677513123,-0.1418603658676147,0.2796715497970581
8.50084716796875,0.5270000100135803,-0.6283999681472778,2.895599842071533,-0.2724982500076294,0.0530580095946788,0.1893158704042434
8.5207001953125,0.2971999943256378,-0.1377999931573867,1.8442999124526975,-0.0945968478918075,0.0113271865993738,0.02387610450387
