seconds_elapsed,accel_x,accel_y,accel_z,gyro_x,gyro_y,gyro_z
0.2111298828125,0.4341000020503998,-0.2217999994754791,-0.9758999943733216,-0.0538259521126747,0.0047996556386351,0.1034282147884368
0.23098779296875,-0.0405999980866909,0.1473999917507171,0.2760999798774719,-0.0538259521126747,0.0047996556386351,0.1034282147884368
0.250831787109375,0.1650999933481216,0.3018999993801117,-0.2331999987363815,-0.0538259521126747,0.0047996556386351,0.1034282147884368
0.270684814453125,0.1777999997138977,0.3958999812602997,-0.4567999839782715,-0.0538259521126747,0.0047996556386351,0.1034282147884368
0.290537841796875,-0.2337999939918518,0.588699996471405,-0.0309999994933605,-0.0538259521126747,0.0047996556386351,0.1034282147884368
0.31039111328125,-0.114499993622303,0.8046000003814697,0.1659999936819076,-0.0538259521126747,0.0047996556386351,0.1034282147884368
0.33024267578125,0.1676999926567077,0.5888999700546265,0.2240999937057495,-0.0538259521126747,0.0047996556386351,0.1034282147884368
0.350095703125,0.3707999885082245,0.5945999622344971,0.1201999932527542,-0.0538259521126747,0.0047996556386351,0.1034282147884368
0.369947265625,0.1486999988555908,0.5175999999046326,0.1629000008106231,-0.0538259521126747,0.0047996556386351,0.1034282147884368
0.38980029296875,0.1309999972581863,0.4037999808788299,0.9047999978065492,-0.0098436567932367,-0.0794822946190834,0.1132020577788353
0.409653564453125,0.1861999928951263,0.1416999995708465,1.3344999551773071,0.0652054995298385,-0.0917345061898231,0.0974068269133567
0.429505126953125,0.2669999897480011,0.2397999912500381,1.3492999076843262,0.1649336069822311,-0.1675865203142166,0.0678409487009048
0.449358154296875,0.3916999995708465,0.280599981546402,0.5877999663352966,0.1760164499282837,-0.1489114910364151,0.0059690261259675
0.469211181640625,-0.1863999962806701,0.4740999937057495,0.4190999865531921,0.117460660636425,0.0486423261463642,0.0061086523346602
0.489064697265625,-0.3725999891757965,0.2266999930143356,0.7005000114440918,0.0310145001858472,0.070825457572937,0.1274963021278381
0.508916015625,0.3229999840259552,-0.5006999969482422,1.4595999717712402,-0.000663225131575,0.0258308723568916,0.1374272257089615
0.52876904296875,0.7500999569892883,-0.8323999643325806,1.8173999786376955,0.159016951918602,-0.0294786114245653,0.048415433615446
0.548622314453125,0.652899980545044,-0.7428999543190002,1.2152999639511108,0.379504382610321,-0.0745779201388359,-0.0216246284544467
0.5684736328125,0.7445999979972839,-0.5879999995231628,-0.2123999893665313,0.4717101454734802,-0.0431096330285072,-0.0692546665668487
0.5883271484375,0.5543000102043152,-0.4650999903678894,-1.1618999242782593,0.3990346193313598,0.0996932089328765,-0.0782780200242996
0.60818017578125,0.1108999997377395,-0.494299978017807,-1.1660000085830688,0.1895776689052581,0.1890889704227447,-0.0083775799721479
0.628031494140625,0.0802999958395958,-0.7021999955177307,-0.2193999886512756,-0.0319220721721649,0.0635997951030731,0.0712268874049186
0.647884765625,0.7055999636650085,-0.8908999562263489,0.5252999663352966,-0.1139176413416862,-0.0882787555456161,0.0704589411616325
0.667738037109375,0.9807999730110168,-0.8989999890327454,1.0348999500274658,0.0158301368355751,-0.0779289528727531,0.0321664176881313
0.687591064453125,0.8947999477386475,-0.644599974155426,0.1747999936342239,0.2549751400947571,-0.0270875096321105,0.0379783660173416
0.707442626953125,0.9672999978065492,-0.3323999941349029,-1.2513999938964844,0.279287576675415,0.0631809160113334,0.0869173929095268
0.727295654296875,0.9484999775886536,-0.2131000012159347,-2.103899955749512,0.0308399684727191,-0.0031066860537976,0.1232027933001518
0.74714892578125,1.2106999158859253,-0.2412000000476837,-1.5597000122070312,-0.2758492827415466,-0.0426383949816226,0.1228537261486053
0.76700048828125,1.1345999240875244,-0.2475999891757965,-0.1010999977588653,-0.3767293095588684,0.0249407552182674,0.1001469939947128
0.786853515625,0.8411999940872192,-0.0855999961495399,0.9781000018119812,-0.26148521900177,0.0351334773004055,0.1049640998244285
0.80670654296875,0.4888999760150909,0.2048999965190887,1.0751999616622925,-0.0848055481910705,-0.0125314639881253,0.1507615447044372
0.826558349609375,0.4219000041484833,0.3310000002384186,0.4172999858856201,0.0548207908868789,-0.0676140561699867,0.1903630644083023
0.846411376953125,0.3872999846935272,0.3971000015735626,-0.469899982213974,0.0594633668661117,-0.0856782123446464,0.2032086849212646
0.866264404296875,0.4105999767780304,0.4518999755382538,-0.7432000041007996,-3.4906584915e-05,-0.1152789965271949,0.1858950108289718
0.886117431640625,0.4026999771595001,0.4526000022888183,-0.7680999636650085,-0.000488692196086,-0.1136383861303329,0.157236710190773
0.90596923828125,0.2906999886035919,0.5762999653816223,-1.1434999704360962,0.0366344600915908,-0.0109083075076341,0.1508662551641464
0.925822265625,0.1422999948263168,0.6448999643325806,-1.5938999652862549,-0.0176976379007101,0.1326973885297775,0.1576730459928512
0.94567529296875,0.2239999920129776,0.5447999835014343,-1.1560999155044556,-0.1942376941442489,0.1762957125902176,0.1587202399969101
0.96552685546875,0.4189999997615814,0.4343999922275543,-0.400299996137619,-0.3262369334697723,0.0919613987207412,0.109851025044918
0.985380126953125,0.5412999987602234,0.4235000014305115,0.1972000002861023,-0.3281916975975036,0.0273493099957704,0.0698306262493133
1.02508642578125,0.7313999533653259,0.3768999874591827,-0.1922999918460846,-0.0054977871477603,0.0896750167012214,0.0486074201762676
1.044937744140625,0.786300003528595,0.3831999897956848,-1.0090999603271484,0.0204378049820661,0.1635897159576416,0.0217817090451717
1.064791015625,0.7106999754905701,0.4833999872207641,-1.1471999883651731,-0.102415919303894,0.1341634541749954,-0.0160221233963966
1.084644287109375,0.6441999673843384,0.5949999690055847,-0.825499951839447,-0.186628058552742,0.0583114512264728,-0.0329343639314174
1.104495849609375,0.5737000107765198,0.6880999803543091,-0.6566999554634094,-0.1642180234193802,0.0872664600610733,-0.0204028990119695
1.124348876953125,0.4885999858379364,0.6995999813079834,-0.6430000066757202,-0.0900589898228645,0.1351233869791031,0.0065973447635769
1.144201904296875,0.4491999745368957,0.7269999980926514,-0.7400999665260315,-0.0411199554800987,0.134041279554367,0.0451167598366737
1.1640537109375,0.4562999904155731,0.7554000020027161,-1.008999943733215,-0.090268425643444,0.1173035800457,0.0885056480765342
1.18390673828125,0.6912999749183655,0.6941999793052673,-0.7821999788284302,-0.1921782046556472,0.1107935011386871,0.1054004356265068
1.203759765625,0.999399960041046,0.53329998254776,-0.1431999951601028,-0.2340486496686935,0.1296779662370681,0.0627096816897392
1.223611328125,0.9054999947547911,0.6692999601364136,0.4157999753952026,-0.1828406900167465,0.1296605169773101,0.008272860199213
1.243464599609375,0.4430999755859375,0.972000002861023,0.3915999829769134,-0.1246863231062889,0.1379682719707489,0.0076096355915069
1.263317626953125,0.3836999833583832,0.9791999459266664,0.2162999957799911,-0.1810429990291595,0.140882983803749,0.0225496534258127
1.283170654296875,0.146599993109703,0.8973999619483948,0.340499997138977,-0.3482280969619751,0.2071007639169693,0.0344702526926994
1.303020751953125,-0.2559999823570251,0.5016999840736389,1.028999924659729,-0.5263040065765381,0.2776295244693756,0.0061435587704181
1.32287548828125,-0.73089998960495,-0.1061999946832656,2.025899887084961,-0.6108129024505615,0.242530956864357,-0.0136310216039419
1.342728515625,-0.6696999669075012,-0.7944999933242798,2.486199855804444,-0.541069507598877,0.1896125674247741,-0.0516442917287349
1.38243310546875,-0.2829000055789947,-1.1958999633789062,1.4990999698638916,-0.2341359108686447,-0.0078190751373767,-0.2239431887865066
1.40228466796875,-0.1990000009536743,-1.042199969291687,0.6553999781608582,-0.168546438217163,0.0246615018695592,-0.2837730944156647
1.422137939453125,-0.3592999875545501,-1.0260000228881836,0.5719000101089478,-0.1279850006103515,0.0916996002197265,-0.3287327587604522
1.441990966796875,-0.944499969482422,-0.839199960231781,0.9232999682426452,-0.0202458184212446,0.189944177865982,-0.3426255881786346
1.461843994140625,-1.920799970626831,-0.6019999980926514,1.146299958229065,0.155421569943428,0.3069685101509094,-0.2363873869180679
1.481695556640625,-2.4895999431610107,-0.670699954032898,0.9524999856948853,0.2147453129291534,0.2975088357925415,-0.0126710906624794
1.501548828125,-2.427799940109253,-1.0157999992370603,0.6261999607086182,0.0965516120195388,0.1638166010379791,0.1639911383390426
1.521402099609375,-1.99019992351532,-1.3990999460220337,0.8481999635696411,-0.0653625801205635,-0.0001919862115755,0.2579945623874664
1.54125341796875,-1.314099907875061,-1.7135999202728271,1.1334999799728394,-0.086411252617836,-0.0864636078476905,0.26947882771492
1.5611064453125,-0.761900007724762,-1.777899980545044,1.239199995994568,0.0513475872576236,-0.1124690175056457,0.1613556891679763
1.5809599609375,-0.9995999932289124,-1.3645999431610107,0.4135999977588653,0.1886177361011505,-0.0667239353060722,0.0228463597595691
1.60081298828125,-1.3447999954223633,-0.9056999683380128,-0.3516999781131744,0.2195973247289657,-0.0295309703797101,-0.0515221208333969
1.62066455078125,-1.4803999662399292,-0.4328999817371368,-1.0648000240325928,0.1608669906854629,-0.0224449336528778,-0.084456481039524
1.640517578125,-1.5131999254226685,-0.048599999397993,-1.212999939918518,0.0497418828308582,-0.000907571229618,-0.0700051560997963
1.660370849609375,-1.4250999689102173,0.1482999920845031,-0.761199951171875,0.0066497046500444,-0.004328416660428,0.0032812189310789
1.680222412109375,-1.2448999881744385,0.2529999911785126,-0.8122999668121338,0.033248521387577,-0.0685390830039978,0.0858527421951294
1.700075439453125,-0.945199966430664,0.3215000033378601,-0.9399999976158142,0.004258603323251,-0.1202531829476356,0.1749692559242248
1.719927001953125,-0.6811000108718872,0.2558999955654144,-1.0210000276565552,-0.0820479243993759,-0.0964992567896843,0.2376091182231903
1.7397802734375,-0.3102000057697296,0.0771999955177307,-0.3727999925613403,-0.1461538672447204,0.0427954718470573,0.2663721442222595
1.75963330078125,-0.1433999985456466,-0.2177999913692474,0.3599999845027923,-0.1151393726468086,0.0997630208730697,0.2441715598106384
1.77948486328125,-0.3087999820709228,-0.2917999923229217,0.840499997138977,-0.0696560889482498,0.0366170071065425,0.1970651298761367
1.799337890625,-0.5801999568939209,-0.2667999863624573,1.3048999309539795,0.0286932121962308,-0.1075646430253982,0.1623854339122772
1.819191162109375,-0.5619999766349792,-0.1704999953508377,0.8337999582290649,0.1631533801555633,-0.1593485623598098,0.1604132056236267
1.839044189453125,-0.3771999776363373,-0.1278999894857406,0.2745999991893768,0.2437003254890442,-0.1343729048967361,0.1361880451440811
1.858895751953125,-0.5686999559402466,0.0860999971628189,-0.5619999766349792,0.2037846446037292,-0.1805194020271301,0.0934100225567817
1.878748779296875,-0.6574000120162964,0.189300000667572,-0.7838000059127808,0.0944572165608406,-0.3033731281757355,0.0573864243924617
1.898601806640625,-0.6477000117301941,0.3017999827861786,-0.8578000068664551,0.0527613013982772,-0.3552792072296142,0.0359188765287399
1.91845361328125,-0.6161999702453613,0.4309999942779541,-0.6797999739646912,0.1052084490656852,-0.2606300115585327,0.0236317571252584
1.938306640625,-0.8412999510765076,0.569599986076355,-1.0160999298095703,0.1539380401372909,-0.1925272643566131,0.0387288555502891
1.95815966796875,-0.9081999659538268,0.6491999626159668,-1.1806999444961548,0.0502654835581779,-0.1755801290273666,0.0603709369897842
1.97801123046875,-0.7875999808311462,0.5309000015258789,-0.911899983882904,-0.0980002358555793,-0.1684068143367767,0.0528311170637607
1.997864501953125,-0.861299991607666,0.4486999809741974,0.0609999969601631,-0.1675865203142166,-0.1706932038068771,0.0249233022332191
2.017717529296875,-0.9824999570846558,0.320499986410141,0.9988999962806702,-0.0484852455556392,-0.2001020014286041,-0.005166174378246
2.037569091796875,-1.243799924850464,0.4851000010967254,1.2990000247955322,0.1807463020086288,-0.1660506278276443,-0.0308050606399774
2.057422119140625,-1.643399953842163,0.7360999584197998,0.7645999789237976,0.3369008898735046,-0.1731541156768798,-0.0103672556579113
2.077275634765625,-1.3983999490737915,0.880299985408783,0.3607999980449676,0.3551221489906311,-0.1902234405279159,0.0180467050522565
2.097126953125,-0.9918999671936036,0.8348000049591064,0.4298999905586242,0.3961199223995209,-0.2276432961225509,-0.0217118952423334
2.11697998046875,-0.9025999903678894,0.7917999625205994,0.2186999917030334,0.5116956233978271,-0.252392053604126,-0.0721693634986877
2.136833251953125,-1.0091999769210815,0.904699981212616,-0.3933999836444855,0.5945638418197632,-0.2226865589618683,-0.0777718722820282
2.1566845703125,-0.7175999879837036,1.110700011253357,-0.3790999948978424,0.5902005434036255,-0.1354375481605529,-0.0483630746603012
2.1765380859375,-0.2468999922275543,1.1899999380111694,-0.3535999953746795,0.6295402646064758,-0.0665668547153472,-0.0826587900519371
2.19639111328125,-0.3398999869823456,1.4190999269485474,-1.3817999362945557,0.4644844830036163,0.1661204397678375,-0.0517664663493633
2.216244140625,-0.6212999820709229,0.8137999773025513,-1.305799961090088,-0.0286757592111825,0.4705756604671478,0.05148721113801
2.236097412109375,-0.791700005531311,-0.3528999984264374,0.6168999671936035,-0.5599539875984192,0.4898441135883331,0.1609019041061401
2.255948974609375,0.294400006532669,-1.6805999279022217,3.5678999423980717,-0.6745697259902954,0.1602735817432403,0.1912706345319748
2.275802001953125,1.7309999465942385,-2.23039984703064,4.614699840545654,-0.1714785993099212,-0.1934697479009628,0.0038920841179788
2.295655029296875,1.9154999256134035,-1.8157999515533447,2.6164000034332275,0.5069657564163208,-0.2639461457729339,-0.252776026725769
2.315506591796875,1.413599967956543,-1.2139999866485596,-0.4878000020980835,0.8574802875518799,-0.2039242684841156,-0.3608642816543579
2.33535986328125,0.9715999960899352,-0.780299961566925,-2.9007999897003174,0.7301585078239441,-0.1082627698779106,-0.3226241171360016
2.355212890625,0.9645999670028688,-0.5990999937057495,-3.655900001525879,0.2842792272567749,-0.0173136666417121,-0.226962611079216
2.375064453125,0.7383999824523926,-0.528499960899353,-2.9126999378204346,-0.2372600585222244,0.0921882912516594,-0.127094879746437
2.39491748046875,0.599399983882904,-0.8007000088691711,-0.9254999756813048,-0.5847551226615906,0.1574112474918365,-0.0171391330659389
2.414770751953125,0.5194000005722046,-1.0717999935150146,1.2541999816894531,-0.6232047080993652,0.1713040620088577,0.0634252652525901
2.434623779296875,0.5320999622344971,-1.187999963760376,2.4113998413085938,-0.3884928226470947,0.0469493567943573,0.1050862744450569
2.454475341796875,0.7351999878883362,-1.2258999347686768,2.3153998851776123,-0.0837932601571083,-0.0829205960035324,0.0948760956525802
2.474326904296875,0.9936999678611756,-1.1680999994277954,1.0103999376296997,0.097703531384468,-0.1550201475620269,0.0658163651823997
2.494181640625,1.4305999279022217,-1.1607999801635742,-0.0527999997138977,0.1338667571544647,-0.1658586412668228,-0.0322885923087596
2.514033203125,1.3526999950408936,-0.993399977684021,-0.3770000040531158,0.1288227587938308,-0.1326450258493423,-0.1680577546358108
2.53388623046875,0.8219999670982361,-0.6873999834060669,-0.7110999822616577,0.1393121778964996,-0.1020144969224929,-0.2576105892658233
2.553739501953125,0.3440999984741211,-0.2656999826431274,-0.8378999829292297,0.1156455129384994,-0.0210137646645307,-0.2812598049640655
2.5735908203125,0.1278000026941299,-0.0361999981105327,-0.789900004863739,0.1166403517127037,-0.0368089936673641,-0.2643824815750122
2.5934443359375,0.0350000001490116,0.3100999891757965,-1.3985999822616575,0.0946492031216621,-0.0040142573416233,-0.2005732357501983
2.613295654296875,-0.0477999970316886,0.649399995803833,-1.51829993724823,-0.0832696557044982,0.0181165169924497,-0.0932703912258148
2.633148681640625,0.2257999926805496,0.665399968624115,-0.8009999990463257,-0.240715816617012,-0.0707207396626472,-0.0075572757050395
2.653001953125,0.6819999814033508,0.6098999977111816,-0.3238999843597412,-0.2667735815048218,-0.0456578135490417,0.0372104197740554
2.672855224609375,0.8047999739646912,0.5092999935150146,-0.4077000021934509,-0.2472084313631057,0.0625700503587722,0.0449422262609005
2.692708251953125,0.7394999861717224,0.4541999995708465,-0.2534999847412109,-0.3080855309963226,0.1898394674062729,0.0493404567241668
2.712559814453125,0.793999969959259,0.2333999872207641,0.6804999709129333,-0.3580193817615509,0.1602212190628051,0.0149051118642091
2.732411376953125,0.7973999977111816,0.1982000023126602,1.2867000102996826,-0.2783974707126617,0.0453785620629787,-0.0638615936040878
2.7522646484375,0.7874000072479248,0.3066999912261963,0.9680999517440796,-0.1021017581224441,-0.018291050568223,-0.1287005841732025
2.77211767578125,0.85999995470047,0.4235999882221222,-0.0803999975323677,0.0719948336482048,0.0194953270256519,-0.165928453207016
2.79196923828125,0.9812999963760376,0.4605999886989593,-1.1037999391555786,0.1534842550754547,0.1796990931034088,-0.197937786579132
2.811822265625,0.7412999868392944,0.5613999962806702,-1.6480998992919922,0.1231504306197166,0.2741912305355072,-0.1910960972309112
2.831675537109375,0.59579998254776,0.5789999961853027,-1.7721999883651731,-0.0360585004091262,0.1829803138971328,-0.1595405489206314
2.851528564453125,0.5002999901771545,0.6532999873161316,-1.5769999027252195,-0.207711637020111,0.1027824357151985,-0.1137431040406227
2.871381591796875,1.0239999294281006,0.4925999939441681,-0.5146999955177307,-0.2728822231292724,0.1802401542663574,-0.0401949323713779
2.891234619140625,1.211300015449524,0.3819999992847442,0.2681999802589416,-0.1436755061149597,0.1912182718515396,-0.0714014172554016
2.91108642578125,0.7852999567985535,0.6901999711990356,0.2193999886512756,-0.0403694659471511,0.1835213750600814,-0.0453261993825435
2.930939453125,0.6988999843597412,0.8326999545097351,0.1500999927520752,-0.0487121380865573,0.1570098251104354,0.0164933614432811
2.95079248046875,0.9555999636650084,0.9954999685287476,0.4426999986171722,-0.1018923223018646,0.1366941928863525,0.0533547140657901
2.97064404296875,0.852400004863739,1.0103999376296997,0.8679999709129333,-0.1332035213708877,0.2372076958417892,0.0651007816195488
2.990497314453125,0.7856999635696411,0.9228999614715576,1.5369999408721924,-0.1170068755745887,0.3337942063808441,0.0751189738512039
3.010348876953125,0.5098000168800354,0.6757000088691711,1.6888999938964844,-0.1160818487405777,0.3483153581619262,0.0521678924560546
3.030201904296875,0.2386000007390976,0.2915999889373779,1.7138999700546265,-0.1627344936132431,0.3758392035961151,-0.0394269861280918
3.050054931640625,-0.4900999963283539,-0.131300002336502,1.8923999071121216,-0.2350958436727523,0.3476521372795105,-0.1225919276475906
3.069906494140625,-0.8337999582290649,-0.6276999711990356,2.1923999786376958,-0.3039490878582001,0.0877900645136833,-0.1690700501203537
3.089759765625,-0.3075000047683716,-0.943399965763092,2.256899833679199,-0.238935574889183,-0.1602561324834823,-0.2224771231412887
3.109613037109375,0.0710999965667724,-0.9747999906539916,2.087100028991699,0.0534594357013702,-0.151424765586853,-0.289777010679245
3.12946435546875,-0.2000999897718429,-0.7918999791145325,1.2151999473571775,0.3988949954509735,0.0149051118642091,-0.320267915725708
3.1493173828125,-1.0367000102996826,-0.6108999848365784,-0.2728999853134155,0.5455026626586914,0.0918217748403549,-0.2421818822622299
3.1691708984375,-1.8316999673843384,-0.4659999907016754,-1.5656999349594116,0.3474950492382049,0.0288851987570524,-0.0823969915509224
3.18902392578125,-2.046799898147583,-0.6266999840736389,-1.7256999015808103,0.0016755161341279,-0.059201568365097,0.1134114935994148
3.228728515625,-1.1694999933242798,-1.7833999395370483,0.5108000040054321,-0.1488765776157379,-0.0353429168462753,0.3466049432754516
3.248581787109375,-0.8113999962806702,-1.927299976348877,0.5554999709129333,-0.0191637147217988,-0.0836012735962867,0.3130946159362793
3.268434814453125,-0.3410999774932861,-1.8768999576568604,-0.0274000000208616,0.0124092912301421,-0.1098161190748214,0.1901710778474807
3.288286376953125,-0.0318999998271465,-1.4569000005722046,-0.5198999643325806,-0.0422369688749313,-0.0106465080752968,-0.00027925267932
3.308139404296875,-0.3362999856472015,-1.0145000219345093,-0.4368999898433685,-0.0987332761287689,0.1518087387084961,-0.1649336069822311
3.32799267578125,-1.0490000247955322,-0.4709999859333038,0.0753999948501586,-0.1350012123584747,0.2009048461914062,-0.2099281996488571
3.34784423828125,-1.3172999620437622,-0.1063999980688095,0.4387999773025512,-0.0783827379345893,0.0542099252343177,-0.157254159450531
3.367697265625,-1.2720999717712402,0.3647999763488769,-0.1072999984025955,-0.0540877543389797,-0.0623257085680961,-0.0457974411547184
3.38755029296875,-0.62909996509552,0.3781999945640564,-0.4668999910354614,-0.1817585825920105,-0.2038719058036804,0.0437903106212616
3.40740185546875,0.2064999938011169,0.2847000062465668,-0.3193999826908111,-0.2419724464416504,-0.2501580417156219,0.0267209913581609
3.427255126953125,0.3093000054359436,0.3491999804973602,0.2737999856472015,-0.1443387269973755,-0.0701447799801826,-0.0292342640459537
3.447106689453125,-0.1790999919176101,0.3382999897003174,0.6821999549865723,0.0767944902181625,0.011257373727858,-0.0286059454083442
3.466959716796875,-0.4569999873638153,0.3463999927043915,-0.1160999983549118,0.1770287454128265,-0.0515221208333969,0.0155159765854477
3.486811279296875,-0.3376999795436859,0.2766000032424927,-0.7013999819755554,0.0467050112783908,-0.0545764453709125,0.0263370182365179
3.50666455078125,-0.4747999906539917,0.0240000002086162,0.1835999935865402,-0.0927118882536888,-0.0236666649580001,-0.0078888880088925
3.526517578125,-0.8387999534606934,-0.1441999971866607,0.8716999888420105,-0.0875806212425232,-0.1350012123584747,-0.0151494583114981
3.54637060546875,-0.8689000010490417,-0.2052999883890152,1.1464999914169312,0.0083252200856804,-0.2708227336406708,-0.0184132233262062
3.56622216796875,-0.7953999638557434,-0.1460999995470047,0.8190000057220459,0.2108706831932068,-0.3646690845489502,-0.0194080621004104
3.5860771484375,-0.5424000024795532,-0.0544999986886978,-0.3756999969482422,0.365716278553009,-0.3372674286365509,-0.0195825938135385
3.605928466796875,-0.5098000168800354,0.1561999917030334,-1.527400016784668,0.3626968562602997,-0.3110874891281128,-0.0295309703797101
3.62578173828125,-0.3735999763011932,0.3474999964237213,-2.275899887084961,0.2008699476718902,-0.3211405873298645,-0.0413293950259685
3.645634765625,-0.4831999838352203,0.5572999715805054,-1.958299994468689,-0.0121823977679014,-0.3484549820423126,-0.0474205948412418
3.665486572265625,-0.597000002861023,0.5593999624252319,-1.2168999910354614,-0.0963596254587173,-0.3643723726272583,-0.0256912466138601
3.685339599609375,-0.4212999939918518,0.6640999913215637,-0.6881999969482422,-0.0687485188245773,-0.3374245166778564,0.0
3.70519091796875,-0.2529999911785126,0.7143999934196472,-0.5485999584197998,-0.0625351443886756,-0.2783800065517425,-0.0189368221908807
3.725044189453125,-0.3080999851226806,0.7342000007629395,-0.0056999996304512,-0.0771086439490318,-0.2412394136190414,-0.0814370661973953
3.7448974609375,-0.5572999715805054,0.8155999779701233,0.7520999908447266,-0.0377165637910366,-0.2715034186840057,-0.1338143944740295
3.7647490234375,-0.7683999538421631,0.8608999848365784,1.3367999792099,0.0818384885787963,-0.31330406665802,-0.1806939393281936
3.78460205078125,-1.0220999717712402,0.904699981212616,1.5782999992370603,0.2246238738298416,-0.3250152170658111,-0.1806415766477584
3.804455078125,-0.8951999545097351,0.7565000057220459,1.3904999494552612,0.3628714084625244,-0.3777939677238464,-0.1911659091711044
3.824306640625,-0.8741999864578247,0.7013999819755554,0.9108999967575072,0.4939630925655365,-0.3814766108989715,-0.2145009636878967
3.844161376953125,-0.664900004863739,0.6525999903678894,0.2374999970197677,0.5789082646369934,-0.3736051917076111,-0.2314306646585464
3.864012939453125,-0.2581999897956848,0.7213000059127808,-0.2674999833106994,0.5656611919403076,-0.3288025856018066,-0.2972121238708496
3.883864501953125,-0.2058999985456466,1.027999997138977,-0.512499988079071,0.45612433552742,-0.1998227387666702,-0.3456275463104248
3.903718994140625,-0.784500002861023,1.1233999729156494,-0.4793999791145324,0.2433687150478363,-0.0643328353762626,-0.3045425117015838
3.92357080078125,-1.4503999948501587,0.6477999687194824,-0.1124999970197677,-0.0944746732711792,0.0564439482986927,-0.1461189687252044
3.94342236328125,-1.1978999376296997,-0.2883999943733215,1.7719999551773071,-0.3548429012298584,0.1398881375789642,0.0153588969260454
3.96327685546875,-0.3874000012874603,-1.3158999681472778,3.6223998069763184,-0.2278003692626953,0.0259181391447782,0.0573166124522686
3.98312841796875,0.3303999900817871,-1.8150999546051023,3.718899965286255,0.1824043542146682,-0.047054074704647,-0.0522202514111995
4.002981689453125,0.1921999901533126,-1.698199987411499,2.048099994659424,0.5596398115158081,-0.0930609554052352,-0.2188468277454376
4.022833251953125,-0.3109000027179718,-1.2831000089645386,0.1178999990224838,0.6826331615447998,-0.2437177747488021,-0.2754827737808227
4.042686279296875,-0.3438999950885772,-0.9080999493598938,-1.4953999519348145,0.5782275795936584,-0.4162261188030243,-0.2305405437946319
4.062539306640625,0.1096999943256378,-0.5934000015258789,-2.2346999645233154,0.3959628343582153,-0.3513696789741516,-0.1743583977222442
4.082390869140625,0.4614000022411346,-0.4633999764919281,-1.725499987602234,0.2785719931125641,-0.1477072089910507,-0.1409702450037002
4.102245849609375,0.1677999943494796,-0.2351999878883361,-1.3156999349594116,0.2858674824237823,-0.0052010812796652,-0.0678234919905662
4.12209716796875,-0.2755999863147735,0.0211999993771314,-1.3461999893188477,0.2922903001308441,0.168145015835762,0.107669360935688
4.141950439453125,-0.4526999890804291,-0.0372000001370906,-1.660099983215332,0.0937416329979896,0.2637716233730316,0.3316125571727752
4.1618037109375,-0.371999979019165,-0.4350999891757965,-1.395699977874756,-0.2694962918758392,0.2049365639686584,0.4908913075923919
4.1816552734375,-0.1308999955654144,-0.948300004005432,-0.217299997806549,-0.5936563014984131,0.1025729998946189,0.5892406105995178
4.201506591796875,0.2894999980926513,-1.4155999422073364,1.5464999675750732,-0.5512622594833374,-0.0691848546266555,0.6147398948669434
4.22135986328125,1.0616999864578247,-1.4959999322891235,1.4326999187469482,-0.2129650712013244,-0.1747947186231613,0.5734803080558777
4.241212890625,1.6729999780654907,-1.3970999717712402,-0.0885999947786331,0.0354127287864685,-0.0433714315295219,0.4546059072017669
4.261066162109375,1.827399969100952,-1.3109999895095823,-1.1449999809265137,0.0574736930429935,0.0994488596916198,0.276372879743576
4.280917724609375,1.561900019645691,-1.0037999153137207,-1.4253000020980835,-0.0786794424057006,0.1526464968919754,0.1151393726468086
4.300770751953125,1.3990999460220337,-0.674299955368042,-0.6500999927520752,-0.2086017578840255,0.1723338067531585,-0.008080874569714
4.320623779296875,0.6534000039100647,-0.1859999895095825,0.2105999886989593,-0.2226167470216751,0.2139075547456741,-0.0555538311600685
4.3404755859375,0.1252999901771545,0.0986999943852424,1.4917999505996704,-0.0553792975842952,0.2561270594596863,-0.0075223692692816
4.36032861328125,-0.193800002336502,0.3842999935150146,1.1513999700546265,0.1962273716926574,0.2635098099708557,0.1329766362905502
4.380181640625,0.0240000002086162,0.4405999779701233,-0.3316999971866607,0.2315004765987396,0.240017682313919,0.2573662400245666
4.400033203125,0.2551999986171722,0.3730999827384949,-1.2030999660491943,-0.0150970984250307,0.1352455615997314,0.3127106428146362
4.419886474609375,0.4923999905586242,0.2888999879360199,-0.940400004386902,-0.2934945523738861,0.0246615018695592,0.32243213057518
4.439739501953125,0.8176999688148499,0.1052999943494796,0.1587999910116195,-0.338000476360321,0.0309446882456541,0.3120299577713012
4.459592529296875,0.9979999661445618,0.0082000000402331,0.5970999598503113,-0.1781632155179977,0.1173908486962318,0.2823069989681244
4.479444091796875,0.9607999920845032,-0.0474999994039535,0.1677999943494796,0.0001919862115755,0.1721941828727722,0.2230879813432693
4.49929736328125,0.9580999612808228,0.1301999986171722,-0.8037999868392944,-0.0130027029663324,0.2094918638467788,0.1556659191846847
4.519150390625,0.6836000084877014,0.2803999781608581,-1.070599913597107,-0.1703615933656692,0.2300169467926025,0.0856084004044532
4.539001953125,0.5074999928474426,0.398499995470047,-0.3319000005722046,-0.2814692556858063,0.2093871533870697,0.0821002870798111
4.55885498046875,0.702299952507019,0.3714999854564667,0.2777000069618225,-0.2021789401769638,0.2016029804944992,0.10349802672863
4.578708251953125,0.9793999791145324,0.3461999893188476,0.1717000007629394,-0.0445931628346443,0.2720619142055511,0.1067966967821121
4.598559814453125,0.9264000058174132,0.4323999881744385,-0.5090999603271484,-0.0064402651041746,0.2893057763576507,0.1181238815188407
4.618412841796875,0.9830999970436096,0.4135999977588653,-0.8037999868392944,-0.1010371074080467,0.2225643843412399,0.1205848008394241
4.638264404296875,1.194499969482422,0.4502999782562256,-0.7439999580383301,-0.2173632979393005,0.163450077176094,0.1229235380887985
4.658117431640625,1.2971999645233154,0.448199987411499,-0.2531999945640564,-0.2436828762292862,0.171426236629486,0.1246688663959503
4.677970703125,1.253999948501587,0.4605999886989593,0.1667999923229217,-0.1969255059957504,0.1621759980916977,0.1395739763975143
4.697823974609375,1.3941999673843384,0.5040000081062317,0.2381999939680099,-0.1246339604258537,0.1110203936696052,0.1403768360614776
4.717677001953125,1.4369999170303345,0.5935999751091003,-0.1349999904632568,-0.0982096791267395,0.1116487085819244,0.1119105145335197
4.737528564453125,1.35479998588562,0.6292999982833862,-0.0350999981164932,-0.0846310183405876,0.2005034238100052,0.0670206397771835
4.7573818359375,1.3802999258041382,0.6234999895095825,0.4092999994754791,0.0372104197740554,0.2898992002010345,0.030229102820158
4.7772333984375,1.3263999223709106,0.8216999769210815,0.0412000007927417,0.1278628259897232,0.3127281069755554,-0.0306654348969459
4.79708642578125,1.0267000198364258,0.9157999753952026,-0.2204999923706054,0.0939336195588111,0.3442836403846741,-0.0719948336482048
4.816939453125,0.785099983215332,0.9472000002861024,-0.3865000009536743,-0.0434936061501503,0.3862937092781067,-0.0390604697167873
4.836792724609375,0.7050999999046326,0.6101999878883362,-0.2206999957561493,-0.2355147302150726,0.3956835865974426,-0.0390081070363521
4.856645751953125,0.538599967956543,0.2972999811172485,0.2524999976158142,-0.3789807856082916,0.4486019611358642,-0.0480140075087547
4.876498779296875,0.3041000068187713,-0.1466999948024749,0.7340999841690063,-0.43650683760643,0.4417602717876434,-0.0392699092626571
4.896350341796875,0.2935999929904938,-0.5212999582290649,0.7410999536514282,-0.5388005971908569,0.2879444062709808,-0.0254119932651519
4.916201904296875,0.911899983882904,-1.004599928855896,1.2977999448776243,-0.6204296350479126,-0.0157079640775918,-0.0989252626895904
4.93605517578125,1.4723999500274658,-1.079200029373169,1.6686999797821045,-0.4800702631473541,-0.1331686228513717,-0.2522175312042236
4.955908203125,1.2878999710083008,-0.7446999549865723,1.5403999090194702,-0.1822647303342819,-0.0541575662791729,-0.3931877613067627
4.975759765625,0.5885999798774719,-0.3928000032901764,0.8776999711990356,0.063756875693798,0.0172438528388738,-0.4797910153865814
4.99561279296875,-0.34579998254776,-0.0935999974608421,0.215499997138977,0.1423665136098861,0.0697608068585395,-0.4766319692134857
5.015466064453125,-1.583899974822998,0.04449999704957,-0.2827000021934509,0.0780162140727043,0.0405090935528278,-0.3685786426067352
5.035317626953125,-2.4029998779296875,-0.130400002002716,-0.3743999898433685,-0.1083325892686843,-0.0503003895282745,-0.1577079445123672
5.055170654296875,-2.1361000537872314,-0.7454999685287476,0.2730000019073486,-0.2587101459503174,-0.0993615910410881,0.0507018156349659
5.075023681640625,-1.1973999738693235,-1.4634000062942505,0.976699948310852,-0.2305579930543899,-0.0647691711783409,0.0831125751137733
5.094876953125,-0.7547999620437622,-1.7742999792099,0.967199981212616,-0.1037947311997413,-0.0181165169924497,-0.0541575662791729
5.114730224609375,-0.9989999532699584,-1.5270999670028689,0.0951999947428703,-0.0497069768607616,-0.0214675497263669,-0.2202954590320587
5.134583251953125,-1.397499918937683,-1.090999960899353,-0.4490000009536743,-0.1257858723402023,-0.0528834760189056,-0.3422590792179107
5.1544345703125,-1.733199954032898,-0.6000999808311462,-0.5776999592781067,-0.2304358184337616,-0.1216145381331443,-0.3665540516376495
5.174286376953125,-1.1380000114440918,-0.3643999993801117,0.530299961566925,-0.1846034675836563,0.1033758521080017,-0.3362027704715729
5.194139404296875,-0.9850999712944032,-0.0980999991297721,0.8509999513626099,0.0429350994527339,0.167010560631752,-0.3154508173465729
5.21399267578125,-0.7633000016212463,0.3226999938488006,-0.202799990773201,0.1661902517080307,0.0893608555197715,-0.2357590794563293
5.233845703125,-0.7376999855041504,0.6509000062942505,-1.1603000164031982,0.066113069653511,-0.0280474405735731,-0.1545314490795135
5.253697509765625,-0.5329999923706055,0.8184999823570251,-1.2538999319076538,-0.1334129720926284,-0.1708677262067794,-0.0168424267321825
5.273552001953125,0.4211999773979187,0.4696999788284302,-0.4324999749660492,-0.2992890477180481,-0.1310742199420929,0.0701796859502792
5.293403564453125,0.7955999970436096,0.091899998486042,1.0829999446868896,-0.2639461457729339,-0.0793950259685516,-0.0048694685101509
5.313256591796875,0.4587000012397766,-0.045499999076128,2.023699998855591,-0.0421322472393512,-0.0559203475713729,-0.07754497975111
5.3331083984375,-0.4178999960422516,-0.045499999076128,1.833199977874756,0.1814095228910446,-0.1522101610898971,-0.0896750167012214
5.35296142578125,-0.526699960231781,-0.1054999977350235,1.1373000144958496,0.2835287451744079,-0.2363873869180679,-0.0373675003647804
5.372814453125,-0.2915000021457672,-0.2927999794483185,0.4280000030994415,0.2699849903583526,-0.2520430088043213,-0.0419402606785297
5.392666015625,-0.3234999775886535,-0.3792999982833862,0.3062999844551086,0.2068389654159546,-0.2681000232696533,-0.1113694608211517
5.41251904296875,-0.6667999625205994,-0.3748999834060669,0.238999992609024,0.1885828226804733,-0.3550348877906799,-0.1639387756586074
5.432370849609375,-0.9921000003814696,-0.2488999962806701,-0.1635999977588653,0.2323382347822189,-0.4114962816238403,-0.165247768163681
5.452223876953125,-1.1799999475479126,0.0060999998822808,-0.8671999573707581,0.2780832946300506,-0.3617543876171112,-0.1114567220211029
5.472076904296875,-0.9899999499320984,0.202699989080429,-1.4972999095916748,0.2363175749778747,-0.2974739074707031,-0.0675616934895515
5.491929931640625,-1.11489999294281,0.386599987745285,-1.6780999898910522,0.1110727563500404,-0.3218387067317962,-0.0230383463203907
5.51178173828125,-0.8159999847412109,0.4646999835968017,-1.7799999713897705,-0.0179594382643699,-0.3874805569648742,0.0306130740791559
5.531634765625,-0.2585999965667724,0.3888999819755554,-1.489799976348877,-0.0986285582184791,-0.3333927989006042,0.0258483253419399
5.55148779296875,-0.1325999945402145,0.4548999965190887,-1.1460000276565552,-0.1022413894534111,-0.2622706294059753,-0.0387288555502891
5.57133935546875,-0.5476999878883362,0.7472999691963196,-0.7330999970436096,-0.106011301279068,-0.1755277663469314,-0.0685565322637558
5.591192626953125,-0.4840999841690063,0.6678000092506409,0.3173999786376953,-0.06166248396039,-0.2155656218528747,-0.0532325431704521
5.611045654296875,-0.2131999880075454,0.6782000064849854,0.645799994468689,0.0450120419263839,-0.3574783504009247,-0.1021366640925407
5.630897216796875,-0.3075999915599823,0.904699981212616,0.2759999930858612,0.1322261393070221,-0.4107981324195862,-0.1411098688840866
5.650750244140625,-0.3594000041484833,0.9680999517440796,0.0015999999595806,0.1718974709510803,-0.3547905385494232,-0.1545139998197555
5.670603759765625,-0.4293999969959259,0.9357999563217164,-0.0041999998502433,0.1930857747793197,-0.2997253835201263,-0.1434660702943802
5.690456787109375,-0.1371999979019165,0.7132999897003174,0.2272000014781952,0.1871865689754486,-0.3644945621490478,-0.1781457513570785
5.71030810546875,-0.1675999909639358,0.5995999574661255,0.311599999666214,0.18551105260849,-0.4799655377864837,-0.23710298538208
5.730161376953125,-0.0764999985694885,0.6036999821662903,0.2985999882221222,0.2055997848510742,-0.4936489164829254,-0.2769663035869598
5.7500146484375,0.3585000038146972,0.4958999752998352,0.474399983882904,0.2308721542358398,-0.4803146123886108,-0.3542669415473938
5.7698662109375,0.1358000040054321,0.7358999848365784,0.0841999948024749,0.2587450742721557,-0.364128053188324,-0.4463330507278442
5.78971923828125,-0.2052000015974044,1.077899932861328,-0.5388999581336975,0.1751612424850464,-0.1091179847717285,-0.4471009969711303
5.809572265625,-1.1571999788284302,0.7973999977111816,-0.2974999845027923,-0.0636870637536048,0.1187522038817405,-0.4085990190505981
5.829425537109375,-1.7182999849319458,0.2265999913215637,1.0210000276565552,-0.3232873380184173,0.1725432425737381,-0.2591290473937988
5.849277099609375,-1.2034999132156372,-0.7767999768257141,2.3473000526428223,-0.3818431198596954,0.0134913949295878,-0.1615302264690399
5.869130126953125,-0.3233000040054321,-1.4055999517440796,2.767400026321411,-0.1936966329813003,-0.0745081081986427,-0.1944471299648285
5.888981689453125,0.2687999904155731,-1.694700002670288,2.3890998363494877,0.1288576573133468,-0.0615926682949066,-0.342800110578537
5.908834716796875,0.1393999904394149,-1.4726999998092651,1.2616000175476074,0.4076740145683288,-0.014678219333291,-0.4766145050525665
5.92868798828125,-0.0977999940514564,-1.163100004196167,-0.0493000000715255,0.5096361637115479,-0.07120943069458,-0.5130744576454163
5.948541015625,-0.202699989080429,-0.7775999903678894,-1.1136000156402588,0.3919136822223663,-0.1108458638191223,-0.4864232540130615
5.968392578125,0.0441999994218349,-0.5684999823570251,-0.8765999674797058,0.2243271619081497,-0.1215098202228546,-0.3883357644081116
5.98824560546875,0.2430999875068664,-0.4994999766349792,-0.524399995803833,0.1217890754342079,-0.1574636101722717,-0.2786069214344024
6.008098876953125,0.2106999903917312,-0.2260999977588653,-0.2004999965429306,0.0821526497602462,-0.1267981678247451,-0.1636944264173507
6.027950439453125,-0.2771999835968017,0.0150999994948506,0.0414999984204769,0.1212305724620819,0.0082903141155838,-0.0012566370423883
6.047803466796875,-0.6570999622344971,-0.0935999974608421,0.0711999982595443,0.2025629132986068,0.1128529906272888,0.2393893599510193
6.067656494140625,-0.3237999975681305,-0.5302000045776367,-0.6568999886512756,0.1513025909662246,0.0818210318684578,0.4523369669914245
6.087510009765625,0.4262999892234802,-0.9967999458312988,-0.8499999642372131,-0.0329169109463691,-0.0153065370395779,0.5025675296783447
6.107361328125,0.8995999693870544,-1.3813999891281128,-0.2748000025749206,-0.1604481190443039,-0.1056622341275215,0.4323005974292755
6.127212890625,1.196499943733215,-1.5369999408721924,0.3285000026226043,-0.1135511174798011,-0.0952775254845619,0.2866528630256653
6.14706591796875,0.8898999691009521,-1.3085999488830566,0.347599983215332,0.0851197093725204,0.0038571776822209,0.1323832273483276
6.1669189453125,0.349399983882904,-0.8800999522209167,-0.488999992609024,0.2219011634588241,0.0988903567194938,0.0823097303509712
6.1867724609375,0.0749999955296516,-0.5643999576568604,-1.4611999988555908,0.1185078546404838,0.0612436048686504,0.0676489621400833
6.20662548828125,0.0894000008702278,-0.2698000073432922,-0.8925999999046326,-0.1011243760585784,0.0317998975515365,0.0691324919462204
6.226476806640625,0.0396999977529048,-0.1917999982833862,0.0684999972581863,-0.111107662320137,0.0240855440497398,0.0897797346115112
6.246330078125,-0.209099993109703,0.0447999984025955,0.1071999967098236,-0.0182212367653846,0.1346347033977508,0.1704314053058624
6.266181640625,-0.3473999798297882,0.1574999988079071,-0.1797000020742416,0.0172962136566638,0.2350609451532364,0.2852391600608825
6.286034912109375,-0.2524999976158142,0.2249999940395355,-0.6305999755859375,-0.0554491095244884,0.1755626648664474,0.4232946932315826
6.305887939453125,0.3492999970912933,0.1290999948978424,-0.9305999875068665,-0.2438748627901077,0.1177224591374397,0.4959876537322998
6.325739501953125,0.8858000040054321,-0.0703999996185302,-0.3935000002384186,-0.4119151532649994,0.1244594305753707,0.4674340784549713
6.3455927734375,0.8967999815940857,-0.1616999953985214,0.8059999942779541,-0.3748792707920074,0.1620014607906341,0.3872362077236175
6.36544580078125,0.7060999870300293,-0.0535000003874301,1.4304999113082886,-0.1511106044054031,0.2089682668447494,0.3378957509994507
6.38529736328125,0.5674999952316284,0.2402999997138977,0.4555999934673309,0.047054074704647,0.2557780146598816,0.3277379274368286
6.405150390625,0.7125999927520752,0.361299991607666,-0.6596999764442444,-0.010437068529427,0.295606404542923,0.2992192506790161
6.425003662109375,0.8865000009536743,0.3352999985218048,-0.7500999569892883,-0.1872040182352066,0.2371727973222732,0.2254965454339981
6.444856689453125,0.85999995470047,0.3989999890327453,-0.2565000057220459,-0.2344849854707718,0.2144486010074615,0.1661902517080307
6.464709716796875,0.8932999968528748,0.4021999835968017,0.3904999792575836,-0.0967261493206024,0.3350334167480469,0.1541823893785476
6.484562744140625,0.7235999703407288,0.5374999642372131,0.1660999953746795,0.0795346572995185,0.3789284229278564,0.157236710190773
6.50441455078125,0.5026000142097473,0.7684999704360962,-0.5044000148773193,0.1012290939688682,0.401582807302475,0.1950230896472931
6.524267578125,0.2726999819278717,0.8285999894142151,-0.8392999768257141,0.0264068320393562,0.3367612659931183,0.2394417226314544
6.54412060546875,0.4393999874591827,0.8916999697685242,-0.8267999887466431,-0.0371755138039588,0.3003886044025421,0.3244916200637817
6.56397216796875,0.8964999914169312,0.7303000092506409,-0.5054000020027161,-0.0758520066738128,0.263684332370758,0.362417608499527
6.583825439453125,0.9908999800682068,0.7324999570846558,-0.343999981880188,-0.0630936548113823,0.2191260904073715,0.360567569732666
6.6036787109375,0.8912000060081482,0.8596999645233154,-0.2795999944210052,-0.0303512755781412,0.2427403926849365,0.3812671601772308
6.62353173828125,0.8625999689102173,0.8826999664306641,-0.0848999992012977,0.0100880032405257,0.2435956001281738,0.4098556637763977
6.643381591796875,0.8910999894142151,0.9472000002861024,-0.1318999975919723,0.0751887857913971,0.2405412793159485,0.4650255143642425
6.663236572265625,0.9528999924659728,0.9907999634742736,-0.4484999775886535,0.0482932589948177,0.2482381761074066,0.5010665655136108
6.683089599609375,1.5130999088287354,1.008800029754639,0.0370999984443187,-0.0428303815424442,0.2467546463012695,0.4641877710819244
6.702941162109375,1.448300004005432,0.9843999743461608,0.8291999697685242,-0.023771384730935,0.2522698938846588,0.3897843658924103
6.722794189453125,1.2335000038146973,1.1332999467849731,0.5539999604225159,0.0212930161505937,0.3198315799236297,0.3828030526638031
6.742647216796875,0.6488999724388123,0.8619999885559082,0.0277999993413686,-0.1166403517127037,0.3697130978107452,0.3900461792945862
6.7624990234375,0.2002999931573867,0.2523999810218811,0.2360000014305114,-0.4048640131950378,0.3696432709693908,0.4232772588729858
6.78235205078125,0.2497999966144561,-0.6193000078201294,1.6664999723434448,-0.5719444155693054,0.3942349553108215,0.4134685099124908
6.80220361328125,0.9036999940872192,-1.4407999515533447,3.104300022125244,-0.4050734639167785,0.1941504180431366,0.2352354824542999
6.822056640625,0.9674999713897704,-1.4865999221801758,2.5247998237609863,-0.0197047665715217,-0.1040216237306594,0.0326725617051124
6.841909912109375,0.9341999888420104,-1.188599944114685,0.7081999778747559,0.2311688512563705,-0.183730810880661,-0.0956964045763015
6.861761474609375,0.5824999809265137,-1.0232999324798584,-0.6089000105857849,0.3074572086334228,-0.0851895213127136,-0.1673072576522827
6.881614501953125,0.5092999935150146,-0.9692999720573424,-1.0368000268936155,0.2672622799873352,0.0499687753617763,-0.1781108528375625
6.901467529296875,0.0790999978780746,-1.0059999227523804,-0.8295999765396118,0.1975014507770538,0.1013512685894966,-0.2168222516775131
6.921319091796875,-1.073699951171875,-0.7746999859809875,-0.7548999786376953,0.0656418353319168,0.0720995515584945,-0.1608146429061889
6.94117236328125,-1.7649999856948853,-0.7846999764442444,-0.6122999787330627,-0.1334653347730636,0.0211359374225139,0.0139626339077949
6.961025390625,-1.086400032043457,-1.2796999216079712,-0.0544999986886978,-0.2890090644359588,0.020978856831789,0.1485624313354492
6.98087841796875,0.1108999997377395,-1.6000999212265017,0.8732999563217163,-0.3293087184429168,0.0039968038909137,0.0792030394077301
7.00072998046875,0.8400999903678894,-1.6180999279022217,1.3765000104904177,-0.2343104481697082,-0.151843637228012,-0.1798736304044723
7.020583251953125,0.4528999924659729,-0.9454999566078186,0.9940999746322632,-0.1143190637230873,-0.1904154270887375,-0.4456523656845093
7.040436279296875,-0.1758999973535537,-0.2342000007629394,0.5814999938011169,-0.0047472957521677,-0.0477696619927883,-0.5653121471405029
7.060287841796875,-0.7404999732971191,0.2518999874591827,0.3545999825000763,0.0901288017630577,0.0647691711783409,-0.5729043483734131
7.080140869140625,-1.2347999811172483,0.6329999566078186,-0.0111999996006488,0.0969530418515205,0.0230557993054389,-0.5026548504829407
7.099994140625,-1.3787000179290771,0.7674999833106995,-0.1315999925136566,0.0344178937375545,-0.1171988621354103,-0.3916867971420288
7.119845703125,-0.9677000045776368,0.5791000127792358,0.2619000077247619,0.040858156979084,-0.181217536330223,-0.2585181593894958
7.13969873046875,-0.5781999826431274,0.2705999910831451,0.0866999998688697,0.1284038722515106,-0.1978156119585037,-0.149225652217865
7.1595517578125,-0.3176999986171722,0.033500000834465,-0.5523999929428101,0.1374446749687194,-0.1968731433153152,-0.085154615342617
7.179403564453125,-0.2088999897241592,-0.1665000021457672,-0.8376999497413635,0.0177150927484035,-0.2251998335123062,-0.073007121682167
7.199256591796875,0.0898000001907348,-0.3549000024795532,-0.0142999999225139,-0.0698829814791679,-0.1961924582719802,-0.1076519042253494
7.21910986328125,0.1022999957203865,-0.5958999991416931,0.714199960231781,-0.0033161255996674,-0.2067517042160034,-0.2009397596120834
7.238962890625,-0.2230999916791916,-0.5051000118255615,0.4966999888420105,0.1122770309448242,-0.1734682768583297,-0.2967932522296905
7.258814697265625,-0.7702999711036682,-0.2483999878168106,0.2981999814510345,0.1672025471925735,-0.1281944364309311,-0.3178244531154632
7.278667724609375,-1.2386999130249023,0.0865999981760978,-0.2879000008106231,0.1695063710212707,-0.2014982551336288,-0.2790257930755615
7.298519287109375,-0.9286999702453612,0.3130999803543091,-0.4621999859809875,0.1205848008394241,-0.1344601660966873,-0.2053205370903015
7.318372314453125,-0.3473999798297882,0.2143999934196472,-0.1200999990105629,0.1629613935947418,-0.1625774204730987,-0.1881814002990722
7.3382255859375,-0.0084999995306134,0.1555999964475631,-0.1664000004529953,0.2110975682735443,-0.2504372894763946,-0.2601587772369385
7.3580771484375,-0.3051999807357788,0.5131999850273132,-0.8280999660491943,0.1570272743701934,-0.327127069234848,-0.3319616317749023
7.37793017578125,-0.9537999629974364,0.8981999754905701,-0.8950999975204468,0.0322013236582279,-0.2369109988212585,-0.2980498671531677
7.397783203125,-1.0199999809265137,0.8833999633789062,-0.3243999779224396,-0.0398458652198314,-0.1972222030162811,-0.1813222616910934
7.417634765625,-0.3039999902248382,0.4787999987602234,0.2798999845981598,-0.0743335708975792,-0.2781356573104858,-0.1627344936132431
7.437488037109375,-0.0355999991297721,0.4529999792575836,0.842199981212616,0.0626747757196426,-0.3272666931152344,-0.2497740685939788
7.457341064453125,-0.3574999868869781,0.5496999621391296,0.5329999923706055,0.2330014556646347,-0.3429397344589233,-0.3003537058830261
7.477192626953125,-0.354200005531311,0.6060999631881714,-0.1933999955654144,0.2781705856323242,-0.3751585185527801,-0.3263416588306427
7.497045654296875,-0.1284999996423721,0.4775999784469604,-0.3371999859809875,0.1922305673360824,-0.3478615581989288,-0.3688927888870239
7.51689892578125,-0.0706999972462654,0.2465999871492386,-0.0265999995172023,0.1468171030282974,-0.4102047383785248,-0.441882461309433
7.53675048828125,0.0018999999156221,0.0038999998942017,0.5156999826431274,0.1898918151855468,-0.4606622159481048,-0.5274385213851929
7.556603515625,0.6123999953269958,0.0375999994575977,0.964199960231781,0.3012438416481018,-0.5039114356040955,-0.6531545519828796
7.5764580078125,0.5988999605178833,0.3647999763488769,0.451799988746643,0.437222421169281,-0.448776513338089,-0.8060803413391113
7.596309814453125,-0.5475999712944031,0.7949000000953674,-0.5090999603271484,0.385298877954483,-0.1234122291207313,-0.7618710994720459
7.616162841796875,-0.9036999940872192,0.2540999948978424,-0.2196999937295913,0.0701971426606178,-0.0070162233896553,-0.5824512839317322
7.636014404296875,-0.3524999916553497,-0.5436999797821045,1.718400001525879,-0.175039067864418,-0.1803448647260666,-0.5059709548950195
7.655867431640625,0.4456000030040741,-1.307600021362305,3.085599899291992,-0.0573340654373168,-0.2989749014377594,-0.5107007622718811
7.675720947265625,0.8208999633789062,-1.434599995613098,2.511699914932251,0.3811450004577636,-0.0917694121599197,-0.6080029010772705
7.695572265625,-0.0626999959349632,-0.7947999835014343,0.5641999840736389,0.5869717001914978,0.119101271033287,-0.5911604762077332
7.71542529296875,-0.684499979019165,-0.7192999720573425,-0.4519999921321869,0.4014606475830078,-0.0271224156022071,-0.4571366310119629
7.73527685546875,0.0100999996066093,-1.0127999782562256,-0.366599977016449,0.1439023911952972,-0.3367438316345215,-0.4142538905143738
7.7551298828125,0.2750999927520752,-1.173200011253357,0.1162000000476837,0.085154615342617,-0.5518207550048828,-0.4254763722419739
7.7749833984375,0.484499990940094,-1.1371999979019165,-0.0043999999761581,0.2147278636693954,-0.5236162543296814,-0.419804036617279
7.794834716796875,0.9041999578475952,-0.9670999646186828,-0.6322000026702881,0.4142189919948578,-0.3018023371696472,-0.3968355059623718
7.81468798828125,0.9681999683380128,-0.7432000041007996,-1.9269999265670776,0.3629761338233948,-0.1988104581832885,-0.3831172287464142
7.834541015625,0.9607999920845032,-0.539900004863739,-1.9904999732971191,0.0599869675934314,-0.2728822231292724,-0.4041484296321869
7.854394287109375,0.7663999795913696,-0.4025999903678894,-0.54339998960495,-0.1852143406867981,-0.3053627908229828,-0.3995058536529541
7.874245849609375,0.271699994802475,-0.2822999954223633,0.929099977016449,-0.2094918638467788,-0.4189662933349609,-0.3475474119186401
7.894100341796875,0.1542999893426895,-0.1969999969005584,1.3602999448776243,-0.0749793425202369,-0.4112170338630676,-0.2445380836725235
7.913951904296875,0.2928999960422516,-0.2915999889373779,1.1769999265670776,0.0914901569485664,-0.3817733228206634,-0.1886875480413437
7.93380517578125,0.3822000026702881,-0.3951999843120575,0.4509999752044678,0.1693318486213684,-0.3585953414440155,-0.1707106530666351
7.953658203125,0.5913999676704407,-0.5906000137329102,-0.1592999994754791,0.1430297344923019,-0.3376514017581939,-0.1851619780063629
7.973509765625,0.5899999737739563,-0.5855000019073486,-0.2913999855518341,0.0179594382643699,-0.416470468044281,-0.2538930475711822
7.99336279296875,0.4053999781608581,-0.6870999932289124,0.7418999671936035,-0.0149574717506766,-0.5258153676986694,-0.3211231231689453
8.013214599609375,1.208799958229065,-0.7935000061988831,0.5670999884605408,0.2446951568126678,-0.5003684163093567,-0.4388630390167236
8.033067626953125,0.2412999868392944,-0.0359000004827976,-0.786799967288971,0.4257730841636657,-0.1013163626194,-0.3937637209892273
8.052920654296875,-0.131300002336502,-0.1361999958753585,-1.0996999740600586,0.2914176285266876,5.23598791914e-05,-0.3612831532955169
8.072772216796874,-0.3411999940872192,-0.0504000000655651,-1.5220999717712402,-0.0436855927109718,-0.1344078034162521,-0.297055035829544
8.09262548828125,0.1650999933481216,-0.4074999988079071,-0.4666000008583069,-0.3569547235965729,-0.3302861154079437,-0.2617819309234619
8.112478515625,0.5561999678611755,-0.1623999923467636,-0.2938999831676483,-0.3608468174934387,-0.3182084262371063,-0.2769139409065246
