seconds_elapsed,accel_x,accel_y,accel_z,gyro_x,gyro_y,gyro_z
0.226017578125,0.4546999931335449,-0.2240999937057495,0.5823000073432922,-0.0403869189321994,0.2051634490489959,0.1730668544769287
0.245869140625,0.4546999931335449,-0.2240999937057495,0.5823000073432922,-0.0403869189321994,0.2051634490489959,0.1730668544769287
0.26572216796875,-0.0211999993771314,-0.2282999902963638,-0.4497999846935272,-0.0403869189321994,0.2051634490489959,0.1730668544769287
0.285573974609375,-0.157600000500679,-0.1414999961853027,-0.7530999779701233,-0.0403869189321994,0.2051634490489959,0.1730668544769287
0.305427001953125,-0.0782999992370605,-0.1632999926805496,-0.6539999842643738,-0.0403869189321994,0.2051634490489959,0.1730668544769287
0.325278564453125,-0.009800000116229,-0.1146999970078468,-0.2418999969959259,-0.0403869189321994,0.2051634490489959,0.1730668544769287
0.345131591796875,-0.0430999994277954,-0.0507999993860721,0.2110999971628189,-0.0403869189321994,0.2051634490489959,0.1730668544769287
0.36498486328125,-0.2073999941349029,0.0964999943971633,0.2098999917507171,-0.0403869189321994,0.2051634490489959,0.1730668544769287
0.38483642578125,-0.1507000029087066,0.1875,0.0308999996632337,-0.0293913446366786,0.1074250116944313,0.2329316437244415
0.404689453125,0.2518999874591827,0.2338999956846237,-0.2422999888658523,-0.0556934550404548,0.1192758008837699,0.255236953496933
0.42454248046875,0.6841999888420105,0.0683999955654144,-0.3504000008106231,-0.0950157269835472,0.171443685889244,0.2458819895982742
0.444395751953125,0.5769999623298645,0.0189999993890523,-0.3073999881744385,-0.10712830722332,0.2803347706794739,0.1947787404060363
0.464247314453125,0.1400000005960464,0.0493000000715255,-0.22809998691082,-0.1072853878140449,0.2377138435840606,0.2185326814651489
0.484100341796875,0.1913999915122985,0.0328000001609325,-0.3659999966621399,-0.1540602147579193,0.1418952643871307,0.2333679795265197
0.503953369140625,0.3527999818325043,0.0447000004351139,-0.3405999839305877,-0.1648288965225219,0.1697507202625274,0.243665412068367
0.523804931640625,0.2097999900579452,0.0590999983251094,0.0170999988913536,-0.1736602634191513,0.226945161819458,0.2616597712039947
0.543658203125,0.4536999762058258,-0.0350999981164932,0.5297999978065491,-0.1713389754295349,0.1388060301542282,0.2137504667043686
0.563511474609375,0.4482999742031097,0.1204999983310699,0.8001999855041504,-0.0844913870096206,0.1732588410377502,0.1417556405067443
0.58336279296875,0.4271999895572662,0.2282999902963638,0.5658999681472778,0.0645248219370842,0.2538581490516662,0.0979827865958213
0.6032158203125,0.2484999895095825,0.294400006532669,-0.0561999976634979,0.1381777226924896,0.3021688461303711,0.0653451234102249
0.6230693359375,0.0614000000059604,0.4440999925136566,-0.4120999872684479,0.1007054969668388,0.306863784790039,0.0517141073942184
0.64292236328125,-0.3057999908924103,0.5361999869346619,-0.1127000004053115,0.0629365742206573,0.2654122114181518,0.0954869613051414
0.66277392578125,-0.088699996471405,0.423799991607666,0.2894999980926513,0.0979653298854827,0.2427752912044525,0.1541823893785476
0.682626953125,0.3136000037193298,0.3567000031471252,0.1943999975919723,0.1584409922361374,0.2937389016151428,0.1782853752374649
0.702480224609375,0.6191999912261963,0.434499979019165,-0.0806000009179115,0.1371305137872696,0.3548254370689392,0.1690002381801605
0.722331787109375,0.3181000053882599,0.4373999834060669,0.0537000000476837,-0.0109432144090533,0.348943680524826,0.1798212677240371
0.742184814453125,0.0974999964237213,0.5092999935150146,0.6924999952316284,-0.1869247555732727,0.2927091717720032,0.2185675799846649
0.762037841796875,-0.2096999883651733,0.1863999962806701,1.3912999629974363,-0.2726553380489349,0.2629338502883911,0.2202256470918655
0.78189111328125,-0.6640999913215637,-0.1842999905347824,1.89329993724823,-0.3422067165374756,0.3773576319217682,0.2353925555944442
0.80174267578125,-0.996999979019165,-0.8690999746322632,2.9047000408172607,-0.3138974606990814,0.3701494336128235,0.2205747067928314
0.821595703125,-0.777999997138977,-1.444599986076355,3.347599983215332,-0.1361705809831619,0.1098161190748214,0.1488765776157379
0.84144873046875,-0.4113000035285949,-1.6150999069213867,2.4423999786376958,0.1286831200122833,-0.1260651350021362,-0.0123743843287229
0.86130029296875,-0.5220999717712402,-1.5541999340057373,1.1375999450683594,0.3699399828910827,-0.081000730395317,-0.1476373970508575
0.881153564453125,-0.8748999834060669,-1.3853999376296997,-0.1684999912977218,0.5211204290390015,0.0258134193718433,-0.2198591232299804
0.901006591796875,-1.527899980545044,-1.1365000009536743,-1.118799924850464,0.4627391397953033,0.1980774104595184,-0.2065946161746978
0.920858154296875,-2.3982999324798584,-1.13919997215271,-1.2079999446868896,0.2243620753288269,0.2352529317140579,-0.1195550560951232
0.940711181640625,-3.076399803161621,-1.1310999393463137,-0.4439999759197235,-0.0317475385963916,0.0567581057548522,0.0390081070363521
0.960564453125,-2.741999864578247,-1.282599925994873,0.2292999923229217,-0.1373050510883331,-0.0753807723522186,0.2250252962112426
0.980416015625,-1.6618999242782593,-1.6291999816894531,0.5794999599456787,-0.0911236405372619,0.0293564386665821,0.3160965740680694
1.00026904296875,-0.7610999941825867,-1.8047999143600464,0.5799999833106995,0.0166329871863126,0.1470963507890701,0.252741128206253
1.0201220703125,-0.5612999796867371,-1.6342999935150146,-0.0286999996751546,0.0101403631269931,0.1236914843320846,0.0983493030071258
1.0399755859375,-0.5600000023841858,-1.2757999897003174,-0.3041000068187713,-0.0929911434650421,0.0903033316135406,-0.0347145982086658
1.059826904296875,-0.9096999764442444,-0.9708999991416932,0.0515000000596046,-0.1140747219324112,0.1574112474918365,-0.1294161677360534
1.07968017578125,-1.2345999479293823,-0.6488999724388123,0.6450999975204468,0.0043109632097184,0.2607347369194031,-0.1259255111217498
1.099533203125,-0.9850999712944032,-0.4894999861717224,0.17289999127388,0.181217536330223,0.300004631280899,-0.0946492031216621
1.119385009765625,-1.2078999280929563,-0.1595999896526336,-0.8998000025749207,0.1584584414958953,0.351928174495697,-0.0791855901479721
1.139236328125,-1.5472999811172483,0.1288999915122985,-0.7635999917984009,-0.0621337220072746,0.080058254301548,0.0268606171011924
1.159091064453125,-0.8668999671936035,0.204599991440773,-0.7229999899864197,-0.2197718620300293,-0.1410400569438934,0.117844633758068
1.178942626953125,0.0307999998331069,0.1748999953269958,-0.0976999998092651,-0.2013586312532425,-0.0148178450763225,0.1172512173652648
1.1987958984375,0.1288999915122985,0.1385999917984008,0.0806000009179115,-0.0672649890184402,0.1507964432239532,0.0390255637466907
1.21864892578125,-0.4754000008106231,0.3114999830722809,-0.0211999993771314,-0.0066497046500444,0.2394242733716964,0.016266468912363
1.238501953125,-0.9054999947547911,0.373199999332428,-0.0276999995112419,-0.0775275230407714,0.1397834122180938,0.0450644008815288
1.258353515625,-0.8319999575614929,0.386599987745285,0.3606999814510345,-0.1847431063652038,-0.0706334710121154,0.0837234407663345
1.278206787109375,-0.3574000000953674,0.212799996137619,0.620199978351593,-0.1678308546543121,-0.1476548612117767,0.1041612476110458
1.298059814453125,-0.123599998652935,0.016499999910593,1.1741999387741089,0.0219736956059932,-0.0150272846221923,0.0525169558823108
1.317911376953125,-0.5381999611854553,0.1693999916315078,0.8422999978065491,0.3078062534332275,0.0409279726445674,0.0503702014684677
1.337764404296875,-0.6965999603271484,0.2608000040054321,-0.4178999960422516,0.3887022733688354,0.0083950338885188,0.094963364303112
1.35761767578125,-0.4420999884605407,0.2678000032901764,-1.3087999820709229,0.2136632055044174,-0.1455604583024978,0.1041088923811912
1.37746923828125,-0.2352999895811081,0.3052999973297119,-1.5281999111175537,0.0061086523346602,-0.1858251988887787,0.0663399621844291
1.397322265625,-0.3951999843120575,0.3797000050544739,-1.0678999423980713,-0.0974068269133567,-0.1103397160768508,0.0389033891260623
1.41717529296875,-0.8032999634742737,0.521399974822998,-0.5751999616622925,-0.0795346572995185,-0.0678583979606628,0.0536514222621917
1.43702685546875,-0.7240999937057495,0.5710999965667725,0.2137999981641769,0.0084997536614537,-0.0911760032176971,0.0882787555456161
1.456880126953125,-0.396699994802475,0.6139999628067017,-0.1472999900579452,0.1371828764677047,-0.2282541543245315,0.0983842089772224
1.476733154296875,-0.1340000033378601,0.7111999988555908,-0.9013999700546264,0.1331337094306945,-0.2239606529474258,0.0347669571638107
1.49658642578125,-0.3655000030994415,0.9460999965667723,-1.0666999816894531,0.0489215776324272,-0.1894205808639526,-0.0056025069206953
1.516437744140625,-0.4208000004291534,1.0580999851226809,-0.6884999871253967,-0.0210486706346273,-0.2063851803541183,0.0052534411661326
1.536291015625,-0.1763999909162521,0.9666000008583068,0.3605999946594238,0.0114319063723087,-0.2696882784366607,0.0051312679424881
1.556144287109375,-0.0126000000163912,1.0455999374389648,0.6469999551773071,0.167446881532669,-0.3502701222896576,-0.0419228076934814
1.57599560546875,-0.2322999984025955,1.2929999828338623,0.3869999945163727,0.2562841475009918,-0.3338291347026825,-0.0535467006266117
1.595848876953125,-0.1861999928951263,1.2668999433517456,0.2046999931335449,0.2787465453147888,-0.3805690407752991,-0.036425020545721
1.6157001953125,0.1498999893665313,1.0159000158309937,0.3168999850749969,0.2548529803752899,-0.3966435194015503,-0.0582416355609893
1.6355537109375,0.1577000021934509,0.7673999667167664,0.8797000050544739,0.3055198788642883,-0.4366464614868164,-0.1430995464324951
1.65540673828125,0.1360999941825866,0.6480000019073486,0.7803999781608582,0.4138873815536499,-0.4306250810623169,-0.2183581441640854
1.675259765625,0.2888000011444092,0.6766999959945679,0.48539999127388,0.4715355932712555,-0.2305405437946319,-0.3385764062404632
1.695111328125,-0.1202999949455261,0.9412999749183656,1.1282999515533447,0.4664043486118316,0.0912109091877937,-0.4348138868808746
1.714964599609375,-1.3457000255584717,1.0123000144958496,1.7325999736785889,0.4653047621250152,0.1818458586931228,-0.4450764060020447
1.734816162109375,-2.150099992752075,0.7318999767303467,1.1413999795913696,0.3746349215507507,0.1627694070339203,-0.2820626497268677
1.754669189453125,-1.8531999588012693,-0.0417999997735023,0.4836999773979187,0.2534392476081848,0.2331759929656982,-0.0724137127399444
1.774522216796875,-0.8768999576568604,-1.0003999471664429,0.3641999959945678,0.157201811671257,0.4483576416969299,0.0777544155716896
1.79437548828125,-0.1136000007390976,-1.921799898147583,1.0015000104904177,0.0927467942237854,0.326411485671997,0.1044230461120605
1.81422705078125,0.8799999952316284,-2.427999973297119,1.2092000246047974,0.1464854776859283,-0.150360107421875,-0.0489041246473789
1.834080078125,1.011299967765808,-2.195199966430664,-0.2206999957561493,0.2395813465118408,-0.4349011480808258,-0.2308023422956466
1.85393310546875,1.0318999290466309,-1.848599910736084,-1.1539000272750854,0.3182956874370575,-0.3516140282154083,-0.2983640432357788
1.873784912109375,0.935099959373474,-1.6030999422073364,-1.9900999069213867,0.3279822766780853,-0.2431069165468216,-0.2853438854217529
1.893637939453125,1.0410000085830688,-1.330299973487854,-2.3141000270843506,0.2141693532466888,-0.2511179745197296,-0.2531076371669769
1.913490966796875,0.9847999811172484,-0.9995999932289124,-2.236999988555908,0.0662352442741394,-0.4186870455741882,-0.2029643356800079
1.933343994140625,1.041800022125244,-0.6746000051498413,-2.410399913787842,-0.1047197580337524,-0.3572165369987488,-0.1358913332223892
1.95319580078125,1.1405999660491943,-0.312199980020523,-2.158499956130981,-0.2422691583633422,0.1517738252878189,-0.0585208907723426
1.973048828125,0.934599995613098,-0.3291999995708465,-0.94650000333786,-0.4415857493877411,0.6305176615715027,0.004660028964281
1.99290185546875,0.3033999800682068,-0.57669997215271,0.8472999930381775,-0.6655289530754089,0.5511924028396606,0.0106639619916677
2.01275341796875,-0.3798999786376953,-0.6078999638557434,2.845899820327759,-0.7636513710021973,0.1352804750204086,0.0777718722820282
2.032606689453125,-0.3260000050067901,-0.7188000082969666,3.871999979019165,-0.4789008796215057,-0.2802998721599579,0.1838355362415313
2.0524599609375,0.5776999592781067,-0.7116000056266785,2.322999954223633,-0.035325463861227,-0.2709798216819763,0.2403143793344497
2.072311279296875,1.0164999961853027,-0.6732000112533569,0.6284999847412109,0.1945343911647796,-0.01385791413486,0.1951627135276794
2.092164306640625,1.4149999618530271,-0.7820999622344971,-0.2585999965667724,0.2399478703737259,-0.0247138626873493,0.0316253677010536
2.112015869140625,0.8060999512672424,-0.2018999904394149,-1.170799970626831,0.1527686715126037,-0.0683820024132728,-0.0988030880689621
2.131869140625,0.2311999946832656,0.295199990272522,-1.7375999689102173,-0.0292517188936471,-0.0577180385589599,-0.0786096304655075
2.151722412109375,0.0192999988794326,0.5482000112533569,-1.6536999940872192,-0.2381850779056549,0.005742133129388,0.012025318108499
2.171575439453125,0.2317999899387359,0.590999960899353,-0.8330999612808228,-0.3726626932621002,0.0969530418515205,0.1120326817035675
2.191428466796875,0.4705999791622162,0.3916999995708465,0.1723999977111816,-0.3576005101203918,0.1337271332740783,0.1456826329231262
2.2112802734375,0.3012999892234802,0.4641999900341034,0.4347999989986419,-0.2212902903556823,0.105871669948101,0.1767843961715698
2.23113330078125,0.212799996137619,0.5221999883651733,-0.221900001168251,-0.163013756275177,0.166329875588417,0.2744879424571991
2.25098486328125,0.4794999957084656,0.2161999940872192,-0.4021999835968017,-0.2417804598808288,0.1389282047748565,0.3482629954814911
2.270837890625,1.1562999486923218,-0.0860999971628189,-0.0892999991774559,-0.3218736052513122,0.1123817488551139,0.3092374503612518
2.290691162109375,1.174299955368042,-0.1552999913692474,0.4014999866485595,-0.2923077344894409,0.1469567269086837,0.2185326814651489
2.310542724609375,0.882599949836731,-0.0869999974966049,0.5253999829292297,-0.1755277663469314,0.1521577984094619,0.1483878940343856
2.330395751953125,0.6471999883651733,0.1889999955892563,0.1972000002861023,-0.0298451296985149,0.1649685204029083,0.1513549536466598
2.350248779296875,0.9333999752998352,0.3409000039100647,-0.4615999758243561,0.0531452745199203,0.2034181207418441,0.1867851316928863
2.370100341796875,1.1445000171661377,0.5654000043869019,-0.9854999780654908,0.0311366729438304,0.2486221492290496,0.1471836119890213
2.389955078125,0.8371999859809875,0.812999963760376,-0.9908999800682068,-0.0769166573882103,0.2691297829151153,0.1343030780553817
2.40980517578125,0.5738999843597412,0.95169997215271,-0.5437999963760376,-0.1473057866096496,0.2158448696136474,0.1810779124498367
2.42965966796875,0.8658999800682068,0.8668999671936035,0.2305999994277954,-0.1169719696044921,0.253875583410263,0.2540850341320038
2.449512939453125,0.8743000030517578,0.7464999556541443,0.6352999806404114,0.0169820543378591,0.2456900030374527,0.2851344347000122
2.469364501953125,0.9569000005722046,0.7489999532699585,0.1981000006198883,0.1326799243688583,0.1519309133291244,0.3030938804149627
2.489217529296875,0.8543999791145325,0.9949999451637268,-0.6220999956130981,0.056740652769804,0.1090830788016319,0.3234444260597229
2.509070556640625,1.0267000198364258,0.7735999822616577,-0.3016999959945678,-0.1087863743305206,0.0841248705983161,0.3172833919525146
2.528922119140625,0.8125,0.6502999663352966,-0.0540999993681907,-0.2560223340988159,0.1032885834574699,0.2848202884197235
2.548775390625,0.2322999984025955,0.4259999990463257,0.5048999786376953,-0.3363947570323944,0.192806527018547,0.319517433643341
2.568626953125,-0.1084999963641166,-0.1854999959468841,0.6951999664306641,-0.3776718080043793,0.3186272978782654,0.4021238684654236
2.58847998046875,0.145699992775917,-0.69159996509552,0.7263000011444092,-0.5302659273147583,0.3426081240177154,0.4195073246955871
2.6083330078125,0.9232999682426452,-1.2674000263214111,1.383099913597107,-0.7461107969284058,0.1757546514272689,0.3059213161468506
2.628184814453125,1.3667999505996704,-1.5173999071121216,2.4049999713897705,-0.7161434888839722,-0.0124791041016578,0.0772482752799987
2.648037841796875,1.1567000150680542,-1.3569999933242798,2.801499843597412,-0.3733433783054352,0.0060039325617253,-0.1214400082826614
2.66789111328125,0.3568999767303467,-0.8933999538421631,1.9787999391555784,0.0356570780277252,0.1487369537353515,-0.2063328176736831
2.687742431640625,-0.6061999797821045,-0.9441999793052672,0.91239994764328,0.2149023860692978,0.3440742194652557,-0.1845511198043823
2.707595947265625,-1.3187999725341797,-0.9782999753952026,0.3610000014305115,0.1054527908563613,0.2647838890552521,-0.1681973785161972
2.727450439453125,-2.124199867248535,-0.9036999940872192,0.6935999989509583,-0.0573340654373168,0.1086641997098922,-0.1124515607953071
2.747302001953125,-2.450500011444092,-0.9271999597549438,1.3460999727249146,-0.0752935037016868,0.0537910461425781,0.0102101759985089
2.767153564453125,-2.2846999168396,-1.075899958610535,1.8494999408721924,0.0958709344267845,0.0418704487383365,0.1424363255500793
2.7870068359375,-1.36489999294281,-1.2078999280929563,1.246999979019165,0.2829527854919433,0.0522900633513927,0.1959132105112075
2.80685986328125,-0.92739999294281,-1.0408999919891355,0.148399993777275,0.3504795730113983,0.0977209880948066,0.1381428092718124
2.82671142578125,-0.9380999803543092,-0.7480999827384949,-0.5518999695777893,0.2741563320159912,0.1085071191191673,0.0618021078407764
2.846564453125,-1.1073999404907229,-0.4111999869346618,-0.7768999934196472,0.1482308059930801,0.000244346098043,0.0547858849167823
2.866417724609375,-0.8932999968528748,-0.277099996805191,-0.8165000081062317,0.0791681334376335,-0.0131248757243156,0.1022588387131691
2.886269287109375,-0.7143999934196472,-0.1410000026226043,-0.1748999953269958,0.1529432088136673,0.0100181894376873,0.1537635028362274
2.906122314453125,-0.3095999956130981,-0.1464999914169311,-0.5177000164985657,0.2493900954723358,0.0086393794044852,0.2285683155059814
2.925975341796875,0.0888999998569488,-0.0332999974489212,-0.9901999831199646,0.2181487083435058,0.0082030473276972,0.2242224514484405
2.945828369140625,-0.0224999990314245,0.0458000004291534,-1.3763999938964844,0.0417133681476116,-0.0607723630964756,0.2120051383972168
2.96568017578125,-0.0376999974250793,-0.0003999999898951,-0.8649999499320984,-0.1610240787267685,-0.0258483253419399,0.2051634490489959
3.00538623046875,0.1184999942779541,-0.3559999763965606,1.614300012588501,-0.0411199554800987,-0.1694365590810775,0.1741664111614227
3.02523779296875,0.2038999944925308,-0.3075999915599823,1.2352999448776243,0.1322610527276992,-0.1781108528375625,0.0984365716576576
3.045091064453125,-0.0299999993294477,-0.1816999912261963,0.5853999853134155,0.2437875866889953,-0.1701696068048477,0.0322536826133728
3.064944091796875,-0.4240999817848205,0.0615999996662139,-0.2611999809741974,0.2471909821033477,-0.1995434910058975,0.0174881983548402
3.084795654296875,-0.6062999963760376,0.3235999941825866,-0.7542999982833862,0.1620363742113113,-0.2403667420148849,0.0434412434697151
3.104648681640625,-0.6800000071525574,0.4235999882221222,-0.7536999583244324,0.0678234919905662,-0.3470936417579651,0.0696037337183952
3.124502197265625,-0.2647999823093414,0.3831000030040741,-0.6234999895095825,0.0342433601617813,-0.3887197375297546,0.0576307699084281
3.144355224609375,0.1335999965667724,0.377700001001358,-0.4465000033378601,0.0993266850709915,-0.293005883693695,-0.010681414976716
3.16420654296875,-0.3668999969959259,0.5076000094413757,-0.5967000126838684,0.1947089284658432,-0.1940806061029434,-0.0747524499893188
3.184059814453125,-0.9325000047683716,0.7279999852180481,-0.8265999555587769,0.2072927504777908,-0.2430894523859024,-0.0462686792016029
3.2039130859375,-0.8908999562263489,0.7688999772071838,-1.2315999269485474,0.0876155272126197,-0.3176150023937225,0.0083252200856804
3.2237646484375,-0.3766999840736389,0.5464000105857849,-0.527999997138977,-0.0192858874797821,-0.3913202583789825,-0.0164933614432811
3.24361767578125,-0.1875,0.382099986076355,0.1375999897718429,0.0577180385589599,-0.2843839526176452,-0.0733736380934715
3.263470703125,-0.4060999751091003,0.3313999772071838,0.2116999924182891,0.2035752087831497,-0.188146486878395,-0.1332907974720001
3.283323974609375,-0.8082999587059021,0.4703999757766723,0.0234999991953372,0.2727600634098053,-0.1556135565042495,-0.1688605993986129
3.303175537109375,-0.9853999614715576,0.6850000023841858,-0.3938999772071838,0.2391101121902465,-0.194656565785408,-0.1566433012485504
3.323028564453125,-0.8659999966621399,0.8366999626159668,-0.5881999731063843,0.0980176925659179,-0.194621667265892,-0.1536587923765182
3.342881591796875,-0.4819999933242798,0.7680999636650085,0.2745999991893768,-0.0425860323011875,-0.2024756520986557,-0.1771334707736969
3.362733154296875,-0.2151999920606613,0.6067000031471252,1.2824000120162964,-0.0311715807765722,-0.269059956073761,-0.2444508075714111
3.38258642578125,-0.0332999974489212,0.6100999712944031,1.9578999280929563,0.1753357797861099,-0.1910786479711532,-0.3362027704715729
3.402439453125,0.2091999948024749,0.7925999760627747,2.179999828338623,0.4834736585617065,-0.0975115448236465,-0.4492477476596832
3.422291015625,-0.0609999969601631,1.195199966430664,1.036199927330017,0.6787410974502563,-0.0328820012509822,-0.5711066126823425
3.44214404296875,-0.4648999869823456,1.681399941444397,0.0971999987959861,0.5974611043930054,0.0797615498304367,-0.6286675930023193
3.461997314453125,-1.528499960899353,1.6628999710083008,-0.2002999931573867,0.3417005538940429,0.1982170492410659,-0.5590115189552307
3.481850341796875,-1.6548999547958374,0.7487999796867371,1.166100025177002,0.051050879061222,0.3362725973129272,-0.3561344444751739
3.501701904296875,-0.8052999973297119,-0.6918999552726746,3.0745999813079834,0.0315380990505218,0.2051285505294799,-0.2311339527368545
3.521554931640625,0.2545999884605407,-1.7552999258041382,3.342899799346924,0.3448421657085418,0.0050614546053111,-0.282917857170105
3.54140673828125,0.6276999711990356,-1.9984999895095823,1.746999979019165,0.7634244561195374,-0.0434412434697151,-0.3839026093482971
3.561259765625,0.7471999526023865,-1.8803999423980715,-0.9067999720573424,0.971397876739502,0.038606684654951,-0.4333128929138183
3.58111279296875,0.6509999632835388,-1.6191999912261963,-2.9291999340057373,0.8146498799324036,0.0223576668649911,-0.4294382631778717
3.600966064453125,0.7681999802589417,-1.4476999044418335,-3.3564999103546143,0.4506789147853851,-0.0684343576431274,-0.4028219878673553
3.6208193359375,0.5934999585151672,-1.2538999319076538,-2.4967000484466557,0.1430646330118179,-0.0802676901221275,-0.3360631465911865
3.6406708984375,0.4395999908447265,-1.0484999418258667,-1.4922999143600464,0.0643153861165046,-0.0184481292963027,-0.2202954590320587
3.66052392578125,0.0777999982237815,-0.7818999886512756,-1.7019000053405762,0.0221482273191213,0.1565560400485992,-0.0517839193344116
3.680376953125,-0.0258999988436698,-0.8140999674797058,-1.7276999950408936,-0.157603234052658,0.2711194455623626,0.1353851854801178
3.700228515625,-0.0354999974370002,-1.1037999391555786,-1.1136999130249023,-0.4574333429336548,0.2006779611110687,0.2735978066921234
3.720080078125,0.2736999988555908,-1.4610999822616575,0.3306999802589416,-0.6680073142051697,-0.0276285614818334,0.3540749549865722
3.739934814453125,0.9488999843597412,-1.6455999612808228,1.4084999561309814,-0.6427000164985657,-0.2099631130695343,0.3193428814411163
3.759786376953125,1.5479999780654907,-1.4888999462127686,1.5861999988555908,-0.3983888626098633,-0.2111499309539795,0.1854586899280548
3.779639404296875,1.4048999547958374,-1.0281000137329102,0.6809999942779541,-0.110566608607769,-0.0863239839673042,0.0391826406121254
3.79949267578125,0.9732999801635742,-0.5267999768257141,-0.7829999923706055,-0.0083077671006321,0.0147131253033876,-0.0357792489230632
3.81934423828125,0.7720999717712402,-0.1798999905586242,-1.5104999542236328,-0.1530304700136184,-0.0154636166989803,-0.1061858311295509
3.839197265625,0.5526999831199646,0.1915999948978424,-1.2125999927520752,-0.341630756855011,-0.0191462617367506,-0.1563815027475357
3.85905029296875,0.5138999819755554,0.468099981546402,-0.3931999802589416,-0.3930307030677795,0.1064301803708076,-0.1561720669269561
3.878903564453125,0.3590999841690063,0.5575000047683716,0.3443000018596649,-0.326411485671997,0.2231403440237045,-0.1154011711478233
3.898755126953125,0.1223999932408332,0.6351999640464783,0.599399983882904,-0.2474353313446045,0.2100852876901626,-0.0422020629048347
3.918608154296875,0.0630999952554702,0.6693999767303467,0.6367999911308289,-0.2533170878887176,0.1332733482122421,0.0469144508242607
3.938461181640625,0.2569999992847442,0.5566999912261963,0.8104999661445618,-0.2910336554050445,0.0604232996702194,0.1025729998946189
3.95831298828125,0.5507999658584595,0.4009999930858612,0.911799967288971,-0.2581341862678528,0.0179943442344665,0.1337969452142715
3.978166015625,0.795199990272522,0.2491999864578247,0.5941999554634094,-0.1607971787452697,0.0083950338885188,0.1139699965715408
3.99801904296875,0.696399986743927,0.2963999807834625,0.1284999996423721,-0.0750142484903335,0.0572118908166885,0.0913854390382766
4.01787060546875,0.676800012588501,0.2601000070571899,-0.1427000015974044,0.0325329378247261,0.0740368664264679,0.0656069293618202
4.037723876953125,0.6229999661445618,0.4208000004291534,-0.7374999523162842,0.0727627798914909,0.1276359260082245,0.0720995515584945
4.057576904296875,0.6171999573707581,0.4268999993801117,-1.1908999681472778,0.0071034901775419,0.1157153323292732,0.07536331564188
4.077428466796875,0.7069999575614929,0.522599995136261,-1.355799913406372,-0.1182111501693725,0.1060636565089225,0.0732514709234237
4.097281494140625,0.8245999813079834,0.4831999838352203,-0.1587999910116195,-0.0959058403968811,0.160517930984497,0.0810181871056556
4.117135009765625,0.6665999889373779,0.6259999871253967,-0.0184000004082918,0.0557109080255031,0.1417556405067443,0.1220857799053192
4.136986328125,0.8447999954223633,0.7513999938964844,-0.4921999871730804,0.118560217320919,0.1851096153259277,0.1557008177042007
4.156839599609375,0.733299970626831,0.8651999831199646,-0.7342999577522278,0.0671777203679084,0.2097362130880355,0.1785646378993988
4.176692626953125,0.8199999928474426,0.8991000056266785,-0.6959999799728394,-0.0554491095244884,0.2173632979393005,0.2168048024177551
4.1965439453125,0.894599974155426,0.8754000067710876,0.096400000154972,-0.1632406413555145,0.1585457026958465,0.2475051432847976
4.2163974609375,0.9855999946594238,0.8603000044822693,1.1532000303268433,-0.0993964970111846,0.0741590410470962,0.2609790861606598
4.236248779296875,0.913699984550476,0.8144999742507935,1.351699948310852,0.101700335741043,0.1597848981618881,0.2917492389678955
4.25610205078125,0.8733999729156494,0.7429999709129333,0.4607999920845032,0.1756848394870758,0.2339962869882583,0.3442312777042389
4.275955078125,0.6548999547958374,0.5303999781608582,-0.4323000013828277,-0.0520108118653297,0.2232625186443328,0.3110700249671936
4.295808349609375,0.1334999948740005,0.2989999949932098,-0.3748999834060669,-0.4784645736217499,0.144495815038681,0.2559350728988647
4.315659912109375,0.0841999948024749,-0.4843999743461609,0.8104999661445618,-0.8321555256843567,0.0896401107311248,0.177936315536499
4.335512939453125,0.2093999981880188,-1.007599949836731,2.750200033187866,-0.8626813292503357,0.0151669112965464,0.0530754625797271
4.355365966796875,0.3914999961853027,-1.090499997138977,4.129499912261963,-0.4114613831043243,-0.048136182129383,-0.0654672980308532
4.3752177734375,0.2678000032901764,-0.7864999771118164,2.44599986076355,0.1409527957439422,-0.0368962585926055,-0.1106015145778656
4.39507080078125,0.1596999913454055,-0.4357999861240387,0.2395000010728836,0.2873859107494354,-0.0059515726752579,-0.1446005254983902
4.414923828125,-0.2633000016212463,-0.2689000070095062,-0.7181999683380127,0.1161691173911094,-0.0870046615600586,-0.1367640048265457
4.43477685546875,-0.9557999968528748,-0.130400002002716,-0.3668999969959259,-0.0236143041402101,-0.1256462484598159,-0.0553269386291503
4.45462841796875,-1.504499912261963,-0.2425999939441681,0.0410999990999698,-0.0435634180903434,-0.1351931989192962,0.1510233432054519
4.474481689453125,-1.541700005531311,-0.6768999695777893,0.1729999929666519,-0.025028022006154,-0.1466251164674759,0.3530626595020294
4.494333251953125,-0.8323000073432922,-1.400399923324585,0.2080999910831451,-0.0166155342012643,-0.1553343087434768,0.4502251446247101
4.514186279296875,-0.2107999920845031,-1.880199909210205,0.1163999959826469,-0.0507367216050624,-0.1544790863990783,0.3478266596794128
4.534039306640625,-0.119899995625019,-1.95989990234375,0.2375999987125396,-0.1131147891283035,-0.1386315077543258,0.1545838117599487
4.55389111328125,-0.4221999943256378,-1.7519999742507937,0.4912000000476837,-0.1008625775575637,-0.0775275230407714,-0.0347145982086658
4.573744140625,-0.5117999911308289,-1.5738999843597412,1.010800004005432,0.0383972451090812,0.0675965994596481,-0.1708502769470214
4.59359716796875,-0.7013999819755554,-1.1840999126434326,0.9735999703407288,0.2959031164646148,0.0837408974766731,-0.2692344784736633
4.6134501953125,-0.9092999696731568,-0.5156999826431274,-0.4350000023841858,0.3511253297328949,0.02179916203022,-0.2974564731121063
4.6333037109375,-1.0859999656677246,0.0054999999701976,-1.2898999452590942,0.1706408411264419,-0.0711570754647255,-0.2798810005187988
4.653155029296875,-0.8388999700546265,0.2741000056266784,-1.375499963760376,-0.0368264466524124,-0.0598298870027065,-0.1980774104595184
4.67300830078125,-0.5081999897956848,0.2255999892950058,-0.6347000002861023,-0.1563989520072937,-0.0282917879521846,-0.1269203424453735
4.692859619140625,-0.5406000018119812,0.2662000060081482,0.0179999992251396,-0.1173384860157966,-0.0705636590719223,-0.080616757273674
4.712713134765625,-0.8587999939918518,0.4560999870300293,0.1050999984145164,-0.0395491607487201,-0.082798421382904,0.0130376098677515
4.732566162109375,-1.049299955368042,0.4350000023841858,-0.2032999992370605,-0.036425020545721,-0.1700474321842193,0.1095717698335647
4.75241748046875,-0.459199994802475,0.314300000667572,-0.1687999963760376,-0.0968134105205535,-0.146712377667427,0.1492605507373809
4.772270751953125,0.033500000834465,0.0081000002101063,0.4298000037670135,-0.0659210830926895,-0.0943524986505508,0.054768431931734
4.7921240234375,-0.0744999945163726,0.0793999955058097,0.4822999835014343,0.037245325744152,-0.0926420763134956,-0.0889245271682739
4.81197705078125,-0.9745000004768372,0.4467999935150146,0.2883000075817108,0.1229409947991371,-0.1700997948646545,-0.1802576035261154
4.83182861328125,-1.1841999292373655,0.661799967288971,-0.1636999994516372,0.1909564733505249,-0.2366491854190826,-0.1648288965225219
4.851681640625,-0.9262999892234802,0.7073999643325806,-0.6984999775886536,0.2419375330209732,-0.2221105992794037,-0.1591565757989883
4.871534912109375,-0.5288000106811523,0.7238999605178833,-1.1207000017166138,0.2227912843227386,-0.1611287891864776,-0.1694191098213195
4.891387939453125,-0.4233999848365783,0.7336999773979187,-0.9455999732017516,0.1991071552038192,-0.1875530779361724,-0.253456711769104
4.911239501953125,-0.942900002002716,1.0810999870300293,-1.0174000263214111,0.1623505204916,-0.233839213848114,-0.2450267672538757
4.931092529296875,-1.0884000062942505,1.1797000169754028,-0.7784000039100647,0.1287878453731537,-0.2223898470401764,-0.1628043055534362
4.950945556640625,-0.9248999953269958,1.107100009918213,-0.4240999817848205,0.1184904053807258,-0.2351831197738647,-0.0550651364028453
4.97079736328125,-0.3804999887943268,0.8787999749183655,-0.0901999995112419,0.1079137101769447,-0.3426255881786346,-0.0366344600915908
4.990650390625,-0.2292999923229217,0.8680999875068665,0.0465999990701675,0.0626224130392074,-0.4367162883281708,-0.0861669033765792
5.01050341796875,-0.2964999973773956,0.8162999749183655,0.503600001335144,0.0913156270980835,-0.4142538905143738,-0.1251226514577865
5.03035498046875,-0.4149999916553497,0.7495999932289124,1.0126999616622925,0.2346246093511581,-0.3531150221824646,-0.1608146429061889
5.050208251953125,-0.1568999886512756,0.9713999629020692,1.0246999263763428,0.3961548209190368,-0.3194999694824219,-0.1972396522760391
5.070061279296875,-0.1362999975681305,1.2691999673843384,0.386599987745285,0.4954291582107544,-0.250507116317749,-0.2921855747699737
5.089912841796875,-0.640999972820282,1.870799899101257,-0.6869999766349792,0.2964092791080475,-0.0819432064890861,-0.2543468177318573
5.109765869140625,-0.8258000016212463,1.2968000173568726,0.1358000040054321,-0.1251226514577865,0.0952251628041267,-0.1333082467317581
5.129619384765625,-0.5399999618530273,0.2964999973773956,2.096099853515625,-0.3949854671955108,0.2068215161561966,-0.0330565348267555
5.149472412109375,-0.3718000054359436,-0.832099974155426,4.266499996185303,-0.3012438416481018,0.2200860232114792,-0.0245916899293661
5.16932373046875,-0.2021999955177307,-1.6229000091552734,4.494100093841553,0.0927467942237854,0.0627096816897392,-0.048694685101509
5.189177001953125,-0.008899999782443,-1.893399953842163,2.540699958801269,0.4344822764396667,-0.0747524499893188,-0.0831823945045471
5.2090302734375,0.3398999869823456,-2.095399856567383,0.1376999914646148,0.5335471630096436,-0.1397310644388198,-0.1355771720409393
5.22888330078125,0.5940999984741211,-2.1963999271392822,-1.4708999395370483,0.3901683390140533,-0.2019695043563842,-0.2140995413064956
5.248733154296875,1.0508999824523926,-2.27209997177124,-1.6996999979019165,0.1442165523767471,-0.472443163394928,-0.3423114120960235
5.268587890625,1.0712000131607056,-1.8838999271392824,-1.4117000102996826,0.090792030096054,-0.5649631023406982,-0.4627216756343841
5.288441162109375,0.5773000121116638,-1.163599967956543,-1.4713000059127808,0.2537883222103119,-0.3423987030982971,-0.442301332950592
5.308292724609375,0.1885000020265579,-0.4814999997615814,-2.201799869537353,0.3745301961898803,0.0370358861982822,-0.2340835630893707
5.328145751953125,0.0802000015974044,-0.19200000166893,-2.754600048065185,0.2467895597219467,0.307614266872406,0.0291993580758571
5.347998779296875,0.3258000016212463,-0.3116999864578247,-2.3980000019073486,-0.1254368126392364,0.3270572423934936,0.2151467353105545
5.367850341796875,0.8308999538421631,-0.6031999588012695,-0.9792999625205994,-0.5343325734138489,0.2309070527553558,0.3215419948101043
5.38770361328125,1.2700999975204468,-0.9717999696731568,1.0569000244140625,-0.6764547228813171,0.0999026447534561,0.3135658502578735
5.407556640625,1.070599913597107,-0.9423999786376952,2.5316998958587646,-0.5317668914794922,0.0503527484834194,0.2513099610805511
5.427408203125,0.8689000010490417,-0.8583999872207642,3.0306999683380127,-0.1892809569835662,-0.0030543261673301,0.2239431887865066
5.44726123046875,1.0135999917984009,-0.7350999712944031,1.688599944114685,0.1301666498184204,-0.0677013248205185,0.1625774204730987
5.467114501953125,1.27020001411438,-0.6085000038146973,-0.1732999980449676,0.1549852341413498,-0.0731991082429885,0.0417308211326599
5.486966064453125,1.3012999296188354,-0.5256999731063843,-0.7188000082969666,0.0307527016848325,-0.0874759033322334,-0.1027475297451019
5.506819091796875,1.0782999992370603,-0.3334999978542328,-0.5498999953269958,0.0224449336528778,-0.0625700503587722,-0.2286555916070938
5.526672119140625,0.6062999963760376,-0.0324999988079071,-0.6954999566078186,0.1195899620652198,0.0455880016088485,-0.2393719106912613
5.54652392578125,0.3012999892234802,0.2219999879598617,-1.293299913406372,0.1625425070524215,0.2221629619598388,-0.1678134053945541
5.566376953125,0.3535999953746795,0.2043999880552292,-1.406499981880188,0.0422544218599796,0.3240901827812195,-0.0928689688444137
5.58622998046875,0.1127000004053115,0.2566999793052673,-1.0892999172210691,-0.2035402953624725,0.2386563271284103,-0.0315555520355701
5.60608154296875,0.0278999991714954,0.2043000012636184,-0.1962999999523162,-0.4061904847621918,0.0726406052708625,0.0519584529101848
5.625934814453125,0.2990999817848205,0.0203999988734722,0.8152999877929688,-0.3933623135089874,0.05740387737751,0.1458571702241897
5.6457880859375,0.7356999516487122,-0.1850000023841858,1.3187999725341797,-0.168808251619339,0.1133416816592216,0.1815665960311889
5.665639404296875,0.7964999675750732,-0.2038999944925308,0.3325999975204468,0.0076096355915069,0.1409527957439422,0.1643751114606857
5.685492431640625,0.5597000122070312,0.0794999971985817,-0.7062999606132507,-0.0385892279446125,0.1255415380001068,0.1248084977269172
5.705345947265625,0.3531999886035919,0.292600005865097,-0.8765999674797058,-0.2024931013584137,0.0043633230961859,0.1181587874889373
5.725197265625,0.5870999693870544,0.2988999783992767,-0.4239999949932098,-0.2758492827415466,-0.0072431163862347,0.1153313592076301
5.745050537109375,0.7014999985694885,0.2003999948501587,0.218299999833107,-0.1626123189926147,0.0894830301403999,0.0725184306502342
5.764903564453125,0.3762999773025512,0.3287000060081482,-0.1200999990105629,0.0104545224457979,0.1856681257486343,0.0642455667257309
5.784756591796875,-0.0013999999500811,0.6014999747276306,-1.031000018119812,0.0366868190467357,0.2193878889083862,0.1119279637932777
5.8046083984375,-0.1896999925374984,0.712399959564209,-1.0861999988555908,-0.0957836657762527,0.1512327790260315,0.2099281996488571
5.82446142578125,0.4447999894618988,0.5813999772071838,-0.6918999552726746,-0.1731890141963958,0.1102524474263191,0.2824117243289947
5.84431298828125,0.8306999802589417,0.5324000120162964,-0.412200003862381,-0.1599768847227096,0.1579173952341079,0.2833716571331024
5.864166015625,0.8032999634742737,0.6280999779701233,-0.4546999931335449,-0.1137256547808647,0.1934522986412048,0.301749974489212
5.884017822265625,0.9375,0.5977999567985535,-0.2576999962329864,-0.0816115960478782,0.2492679208517074,0.3348588645458221
5.903872314453125,1.0494999885559082,0.5715000033378601,0.0989999994635582,-0.0429350994527339,0.2894977629184723,0.3544938266277313
5.923723876953125,1.1962000131607056,0.6067000031471252,0.2239999920129776,0.0032812189310789,0.2782054841518402,0.3610737025737762
5.943576904296875,1.2422000169754028,0.8003000020980835,-0.0586999990046024,-0.0538084991276264,0.252776026725769,0.3502875864505768
5.963428466796875,1.1765999794006348,0.7292999625205994,0.0359000004827976,-0.1792627722024917,0.2561794221401214,0.3198141455650329
5.98328173828125,1.133800029754639,0.7098999619483948,0.5615999698638916,-0.3056420683860779,0.3454006612300873,0.2874557375907898
6.003134765625,0.8157999515533447,0.5072000026702881,1.3910999298095703,-0.3352428376674652,0.3739542365074157,0.2399478703737259
6.022986328125,0.399399995803833,0.3589999973773956,1.74809992313385,-0.2952049970626831,0.3532895445823669,0.165195420384407
6.042841064453125,-0.2689000070095062,0.3610999882221222,1.442099928855896,-0.2504198253154754,0.2978229820728302,0.1742536723613739
6.062692626953125,-0.0746999979019165,0.031599998474121,0.9632999897003174,-0.2961823642253876,0.1372003257274627,0.2089857310056686
6.082545654296875,0.4902999997138977,-0.4660999774932861,0.9800999760627748,-0.346098780632019,0.0791681334376335,0.1610415279865265
6.102398681640625,0.8822000026702881,-0.8168999552726746,1.7379999160766602,-0.2368411719799041,0.1542522013187408,0.0635125339031219
6.122250244140625,0.6775000095367432,-1.107800006866455,2.044299840927124,0.0686961561441421,0.1915498822927475,-0.0528834760189056
6.142103515625,-0.1291999965906143,-0.8346999883651733,1.0406999588012695,0.3016452491283417,0.1591042131185531,-0.0962898135185241
6.161955078125,-0.9088999629020692,-0.6225999593734741,-0.3272999823093414,0.3102322816848755,0.1339016556739807,-0.0331612564623355
6.18180810546875,-1.246500015258789,-0.6870999932289124,-1.076799988746643,0.1425759494304657,0.1235693097114563,0.0762359797954559
6.20165966796875,-1.3490999937057495,-0.9282999634742736,-0.8292999863624573,-0.0377514697611331,0.1545488983392715,0.1817411333322525
6.2215146484375,-1.1796000003814695,-1.3636999130249023,-0.1643999963998794,-0.1476723104715347,0.1335525959730148,0.2557780146598816
6.241365966796875,-0.7056999802589417,-1.7013999223709106,0.5011999607086182,-0.1452113986015319,0.0634776279330253,0.2245889604091644
6.26121923828125,-0.5160999894142151,-1.695599913597107,0.5485999584197998,-0.1002517119050026,0.0184830371290445,0.1148601174354553
6.281070556640625,-0.5611000061035156,-1.343500018119812,0.2360999882221222,-0.0646644458174705,0.0788365229964256,-0.0154985236003994
6.300924072265625,-0.8887999653816223,-0.9373999834060668,-0.00429999968037,-0.0783303752541542,0.1515818387269973,-0.1117010712623596
6.320777099609375,-1.1368999481201172,-0.4786999821662903,9.99999974737e-05,-0.0976511687040329,0.1824043542146682,-0.1261174976825714
6.340628662109375,-0.94650000333786,-0.3202999830245971,0.2683999836444855,-0.09965830296278,0.1141968891024589,-0.0901637077331543
6.360483154296875,-0.4966000020503998,-0.1521999984979629,0.2025000005960464,-0.0403869189321994,0.0381354428827762,-0.1095019578933715
6.3803349609375,-0.5785999894142151,0.2601999938488006,-0.2320999950170517,0.0210661236196756,0.0907571241259574,-0.0999026447534561
6.4001865234375,-0.7791999578475952,0.5238999724388123,-0.7103999853134155,-0.02179916203022,0.1210385859012603,-0.0224449336528778
6.42003955078125,-0.7249999642372131,0.5586999654769897,-0.6617000102996826,-0.1712516993284225,0.0628143996000289,0.0635474398732185
6.439892578125,-0.5015999674797058,0.3641999959945678,0.3553999960422516,-0.2460565119981765,-0.0224798414856195,0.1208116933703422
6.45974560546875,-0.5925999879837036,0.2040999978780746,1.178699970245361,-0.1371654272079467,-0.0444884411990642,0.1523323357105255
6.479597412109375,-0.5999999642372131,0.0794999971985817,1.1582999229431152,0.0529358349740505,-0.0175056532025337,0.1825090795755386
6.499450439453125,-0.5076000094413757,-0.0687999948859214,0.5830999612808228,0.1661902517080307,0.0109083075076341,0.1872563809156417
6.519304931640625,-0.7145000100135803,-0.1691000014543533,-0.2379999905824661,0.1309695094823837,0.0048869219608604,0.1846558302640915
6.539155029296875,-0.5397999882698059,-0.3608999848365783,-0.0811999961733818,0.0042062434367835,-0.0515570268034935,0.1520356237888336
6.55900830078125,-0.5198999643325806,-0.5292999744415283,0.5259999632835388,-0.0043458696454763,-0.0926420763134956,0.0939859822392463
6.578861328125,-0.6500999927520752,-0.499099999666214,0.6222999691963196,0.1318596303462982,-0.0728151351213455,0.0526740364730358
6.59871435546875,-0.9009999632835388,-0.3165999948978424,-0.0944999977946281,0.268379271030426,-0.0403345599770545,0.0592190213501453
6.6384208984375,-0.9192999601364136,-0.0270999986678361,-1.3012999296188354,0.0692197605967521,-0.0797615498304367,0.1666440367698669
6.658272216796875,-0.5329999923706055,-0.0015999999595806,-0.9535999894142152,-0.0614355877041816,-0.1679181307554245,0.1627694070339203
6.678123779296875,-0.3289999961853027,0.1158000007271766,-0.7051999568939209,-0.078260563313961,-0.19100883603096,0.1675865203142166
6.697976806640625,-0.3158999979496002,0.3343999981880188,-0.3797000050544739,-0.0188495554029941,-0.1263094842433929,0.1646019965410232
6.717830322265625,-0.3889999985694885,0.5130000114440918,-0.3134999871253967,0.0635648891329765,-0.0767072215676307,0.1651081442832946
6.737681640625,-0.492499977350235,0.7745999693870544,-0.2992999851703644,0.093706727027893,-0.041137408465147,0.1764876991510391
6.75753466796875,-0.4825999736785888,0.9521999955177308,-0.3312000036239624,0.0480140075087547,-0.0781732946634292,0.182648703455925
6.777387939453125,-0.676099956035614,1.128000020980835,-0.2197999954223632,-0.044034656137228,-0.1266585439443588,0.1780235767364502
6.7972412109375,-0.7797999978065491,1.2319999933242798,0.3940999805927276,-0.0912981703877449,-0.1708677262067794,0.1844638437032699
6.8170927734375,-0.636900007724762,1.246399998664856,0.8472999930381775,-0.0272620432078838,-0.1713564246892929,0.1996307522058487
6.83694580078125,-0.1816999912261963,1.1121000051498413,1.286099910736084,0.1082453206181526,-0.0497942417860031,0.163415178656578
6.856798828125,-0.2314999997615814,0.9145999550819396,1.883099913597107,0.3068463206291199,-5.23598791914e-05,0.0719250217080116
6.876650390625,-0.6085999608039856,0.7800999879837036,1.63319993019104,0.5020090341567993,-0.1117534339427948,-0.0008203047327697
6.896503662109375,-1.1074999570846558,0.7287999987602234,1.0655999183654783,0.614844560623169,-0.1868898570537567,-0.0239633712917566
6.916356689453125,-1.0292999744415283,0.6482999920845032,0.7141000032424927,0.7181506156921387,-0.2937738299369812,-0.0138753671199083
6.936209716796875,-0.6078000068664551,0.6872999668121338,-0.0193999987095594,0.7756417989730835,-0.2208539694547653,-0.0478220209479332
6.956061279296875,-0.7876999974250793,0.972000002861023,-0.6574000120162964,0.7140141725540161,-0.0488692186772823,-0.0460417866706848
6.97591455078125,-1.2609999179840088,0.9740999937057496,-1.2984999418258667,0.4508883655071258,0.0506319999694824,0.059917151927948
6.995767578125,-1.3342000246047974,0.375,-0.8441999554634094,-0.0177674517035484,0.1077391728758812,0.2080956101417541
7.015619140625,-1.1562999486923218,-0.6331999897956848,1.1061999797821045,-0.3599916100502014,0.169925257563591,0.3190636336803436
7.03547216796875,-0.3895999789237976,-1.6208999156951904,3.61329984664917,-0.2578025758266449,0.0563217736780643,0.3489262163639068
7.055325439453125,0.4233999848365783,-2.164599895477295,3.952399969100952,0.2958333194255829,-0.1968905925750732,0.2272942215204239
7.075177001953125,0.4187999963760376,-1.7542999982833862,1.674399971961975,0.8868715763092041,-0.1544441878795623,0.0853989571332931
7.095030029296875,0.3364000022411346,-1.4649999141693115,-1.4498000144958496,1.070637345314026,0.0426383949816226,0.0340862795710563
7.114883056640625,0.3608999848365783,-1.313599944114685,-3.121500015258789,0.7983834147453308,0.0529009290039539,-0.0155683364719152
7.134736328125,-0.0198999997228384,-1.232100009918213,-2.9340999126434326,0.3455053865909576,-0.1709550023078918,-0.0519933588802814
7.154587890625,-0.0240000002086162,-1.07669997215271,-1.5733999013900757,0.1342507302761078,-0.2037846446037292,-0.0057595865800976
7.17444091796875,-0.0745999962091445,-0.9012999534606934,-0.746399998664856,0.2029468864202499,0.016702800989151,0.1181762441992759
7.194294189453125,-0.2302999943494796,-0.7383999824523926,-0.8337000012397766,0.2998126447200775,0.1755277663469314,0.279217779636383
7.214145751953125,-0.2587999999523163,-0.5518999695777893,-1.4011999368667605,0.0635823458433151,0.2367888242006302,0.467678427696228
7.2339990234375,0.4380999803543091,-0.9436999559402466,-0.4930999875068664,-0.339850515127182,0.1317374557256698,0.5511400699615479
7.253850341796875,0.9031999707221984,-1.1304999589920044,1.1868000030517578,-0.5170188546180725,0.0498116984963417,0.4746772050857544
7.273705078125,0.1375000029802322,-0.8848999738693237,2.623600006103516,-0.3143163323402405,0.0430398173630237,0.4277627468109131
7.293556640625,-0.3784999847412109,-0.6626999974250793,2.129999876022339,0.026616271585226,0.0215024556964635,0.4897044897079468
7.313408203125,0.017400000244379,-0.6833999752998352,0.9158999919891356,0.2134712189435959,0.0863588899374008,0.5401968359947205
7.333261474609375,0.3601999878883362,-0.7935999631881714,0.0438000001013278,0.2704213261604309,0.1473407000303268,0.469877541065216
7.353114501953125,0.2980999946594238,-0.5701999664306641,-0.7440999746322632,0.2199987471103668,0.1356120854616165,0.4191931784152984
7.372967529296875,0.2780999839305877,-0.4266999959945678,-0.9485999941825868,0.0938463509082794,0.1785471886396408,0.3878645300865173
7.39282080078125,0.2778999805450439,-0.3798999786376953,-0.2346999943256378,0.0808087438344955,0.2506467401981354,0.3826285302639007
7.41267236328125,-0.0038999998942017,-0.1445999890565872,-0.2188999950885772,0.1101128235459327,0.3157998621463775,0.3961024582386017
7.432525390625,-0.4724999964237213,0.1738999933004379,-0.4061999917030334,0.0592190213501453,0.3690498769283294,0.4957084059715271
7.45237841796875,-0.3836999833583832,0.0992999970912933,-0.1087999939918518,-0.0561297871172428,0.3781604766845703,0.6403089165687561
7.472230224609375,-0.0337000004947185,-0.209999993443489,0.7257999777793884,-0.1392947286367416,0.2340137511491775,0.6835232973098755
7.492083251953125,-0.0942999944090843,-0.2793999910354614,1.1114000082015991,-0.0842644944787025,0.1800132542848587,0.7385360598564148
7.511936279296875,0.3209999799728393,-0.5629000067710876,0.7084999680519104,0.0273144021630287,0.2554114758968353,0.7492349147796631
7.531789306640625,0.3949999809265136,-0.4623000025749206,0.0318999998271465,0.1154709830880165,0.4501902163028717,0.7361798882484436
7.55164111328125,-0.0363999977707862,-0.6899999976158142,-0.0978999957442283,0.0233699586242437,0.6904871463775635,0.7082371711730957
7.57149267578125,-0.4544000029563904,-0.6380999684333801,0.4865999817848205,-0.0982794910669326,0.3855606913566589,0.6975906491279602
7.591345703125,0.0094999996945261,-0.8308999538421631,0.1491999924182891,-0.1394867151975631,0.2771931886672973,0.6804340481758118
7.61119873046875,0.3790999948978424,-0.3400999903678894,0.0340999998152256,-0.0346622392535209,0.4384965300559997,0.638947606086731
7.631052001953125,0.5546999573707581,-0.573199987411499,-0.1305000036954879,0.0779813081026077,0.7174001336097717,0.6329436302185059
