seconds_elapsed,accel_x,accel_y,accel_z,gyro_x,gyro_y,gyro_z
0.18476708984375,-0.0461589992046356,-0.1053839996457099,0.7109180092811584,0.0526624992489814,0.2188999950885772,0.1181124970316886
0.2192099609375,-0.0461589992046356,-0.1053839996457099,0.7109180092811584,-0.0596750006079673,0.0184249989688396,0.0155375003814697
0.253652587890625,-0.0461589992046356,-0.1053839996457099,0.7109180092811584,0.0148499999195337,0.1211374998092651,0.0288750007748603
0.28809521484375,-0.0461589992046356,-0.1053839996457099,0.7109180092811584,0.0013749999925494,0.2567124962806701,0.0998250022530555
0.322537841796875,0.1193310022354126,-0.1562400013208389,0.3704069852828979,-0.2991999983787536,0.1113749966025352,0.2096875011920929
0.356980712890625,0.493151992559433,-0.2478300034999847,1.311962008476257,-0.2149125039577484,0.127187505364418,0.1583999991416931
0.39142333984375,-0.2381699979305267,-0.4762589931488037,1.5517070293426514,0.2127124965190887,0.1076624989509582,0.2391124963760376
0.425865966796875,0.7536799907684326,-0.2443079948425293,0.0375249981880188,0.2664749920368194,0.0501874983310699,0.1926375031471252
0.46030859375,0.1412770003080368,-0.1171619966626167,-0.5083379745483398,-0.0218624994158744,0.1431374996900558,0.1254000067710876
0.49475146484375,0.1789239943027496,-0.248867005109787,0.2618860006332397,-0.0584375001490116,0.1564749926328659,0.1193500012159347
0.529194091796875,0.0146789997816085,-0.2924990057945251,0.3644810020923614,0.1504250019788742,0.333712488412857,0.1853500008583068
0.563636962890625,0.2357690036296844,-0.1966640055179596,-0.5685210227966309,0.025849999859929,0.2835249900817871,0.1951124966144561
0.59807958984375,0.4226549863815307,-0.1306409984827041,-0.1729550063610077,-0.1451999992132187,0.2799499928951263,0.1706375032663345
0.632522216796875,-0.1657329946756363,-0.2039790004491806,0.6565870046615601,0.0698499977588653,0.3019500076770782,0.1999250054359436
0.66696484375,0.2564220130443573,0.1423410028219223,-0.6641200184822083,0.0173249989748001,0.222474992275238,0.346637487411499
0.701407958984375,0.8095170259475708,0.0988259986042976,-0.5752270221710205,-0.3150124847888946,0.1357125043869018,0.3001624941825866
0.7358505859375,0.9815469980239868,-0.0314910002052784,0.7279459834098816,-0.1769624948501587,0.1809500008821487,0.2574000060558319
0.77029345703125,0.5999040007591248,-0.0897630006074905,0.0779260024428367,0.1809500008821487,0.2004749923944473,0.2451625019311905
0.80473583984375,0.5499770045280457,0.1188089996576309,-1.4498670101165771,-0.0059124999679625,0.1137124970555305,0.1865874975919723
0.8391787109375,0.5169079899787903,0.1199420019984245,-0.5307289958000183,-0.202674999833107,0.3605250120162964,0.2158749997615814
0.873621337890625,0.0345179997384548,-0.2191160023212433,0.9386420249938964,0.0734250023961067,0.3177624940872192,0.1706375032663345
0.908064208984375,0.1702120006084442,0.2714920043945312,-0.4714860022068023,0.0906125009059906,0.2274249941110611,0.219587504863739
0.9425068359375,0.2768959999084472,0.1651989966630935,-0.4949460029602051,-0.4250124990940094,0.2139499932527542,0.2061125040054321
0.97694970703125,0.0509550012648105,-0.4110290110111236,0.9189770221710204,-0.4285874962806701,0.1979999989271164,0.2879250049591064
1.011392333984375,0.9965320229530334,-0.4773580133914947,0.7558659911155701,-0.152487501502037,0.1979999989271164,0.2134000062942505
1.045835205078125,1.1317789554595947,-0.2291020005941391,-0.3641760051250458,-0.1586750000715255,0.1454750001430511,-0.0016499999910593
1.08027783203125,0.5681440234184265,-0.2077579945325851,-0.2749240100383758,-0.3834874927997589,0.2297624945640564,-0.1689874976873397
1.114720947265625,-0.5332520008087158,-0.2375469952821731,0.5795869827270508,-0.4690124988555908,0.1211374998092651,-0.1042250022292137
1.14916357421875,-0.6434310078620911,-0.4620899856090545,1.4845240116119385,-0.3687750101089477,0.1759999990463256,-0.0186999998986721
1.1836064453125,-1.079475998878479,-0.7704010009765625,1.2997920513153076,-0.048675000667572,0.0013749999925494,0.1108250021934509
1.218049072265625,-0.3445099890232086,-0.8114550113677979,0.388498991727829,-0.1561999917030334,0.0514249987900257,0.1571625024080276
1.252491943359375,-0.1938250064849853,-0.9917129874229432,0.8116750121116638,-0.2869625091552734,0.0686125010251998,0.011824999935925
1.2869345703125,-1.1742089986801147,-1.1527010202407837,1.1873780488967896,-0.0108624994754791,-0.0866250023245811,-0.0321750007569789
1.321377197265625,-0.4742150008678436,-0.9514080286026,0.1167170032858848,0.1711875051259994,0.1101374998688697,-0.0089375004172325
1.35581982421875,-0.5703039765357971,-0.7479820251464844,-1.5889619588851929,-0.1684374958276748,-0.0671000033617019,-0.0382249988615512
1.3902626953125,-0.3857679963111877,-0.5181750059127808,0.7280340194702148,-0.4713499844074249,-0.0719124972820282,-0.1347499936819076
1.424705322265625,-0.6106529831886292,-0.4184660017490387,1.4187949895858765,-0.0230999998748302,0.0331375002861022,-0.1090374961495399
1.45914794921875,-1.1201870441436768,0.0081380000337958,-0.0704369992017746,-0.0889625027775764,0.0954250022768974,-0.0492249988019466
1.4935908203125,-1.207056999206543,-0.0670899972319603,1.687351942062378,-0.2795374989509582,-0.0596750006079673,-0.0137499999254941
1.528033447265625,-0.9269610047340392,-0.3308779895305633,2.736943006515503,0.1993750035762787,0.0697124972939491,0.0582999996840953
1.56247607421875,-1.380488038063049,-0.2623429894447326,0.6192020177841187,0.3264249861240387,-0.0633874982595443,0.0925374999642372
1.5969189453125,-0.918042004108429,-0.3284409940242767,0.354431003332138,0.1456124931573867,-0.1977249979972839,0.0888250023126602
1.63136181640625,-0.5976729989051819,-0.3045260012149811,0.5648900270462036,0.2469500005245208,0.0453750006854534,0.0595375001430511
1.6658046875,-0.488631010055542,-0.2112759947776794,0.0507039986550807,0.3630000054836273,0.206662505865097,-0.0101749999448657
1.700247314453125,-0.6811249852180481,0.2297820001840591,-0.0334669984877109,0.1443749964237213,0.0906125009059906,-0.0039874999783933
1.734690185546875,-0.3139860033988952,0.1084600016474723,0.6689689755439758,0.2628999948501587,0.062424998730421,0.0925374999642372
1.769132568359375,0.0531429983675479,0.1151280030608177,-0.4903649985790252,0.3397625088691711,-0.0193875003606081,0.0277750007808208
1.803575439453125,-0.5415779948234558,0.3377169966697693,-1.003715991973877,0.1284250020980835,-0.0376750007271766,0.0387750007212162
1.83801806640625,-0.6915979981422424,0.3358399868011474,-1.170490026473999,-0.0389125011861324,-0.0609125010669231,0.1681624948978424
1.8724609375,-0.3854300081729889,0.2333289980888366,-0.3691630065441131,0.0404249988496303,-0.3309625089168548,0.0692999958992004
1.906904052734375,-0.0317550003528595,0.3788529932498932,-0.7559999823570251,0.2884750068187713,-0.1843875050544738,0.0252999998629093
1.941346435546875,-0.6579859852790833,0.5380849838256836,-1.639685034751892,0.1639000028371811,-0.1379124969244003,0.0215875003486871
1.97578955078125,-0.3659810125827789,0.6191790103912354,-0.9901310205459596,-0.0144375003874301,-0.3089624941349029,0.0558249987661838
2.01023193359375,-0.3414799869060516,0.5608620047569275,0.3596549928188324,0.1211374998092651,-0.1354375034570694,0.0203499998897314
2.044675048828125,-0.3961989879608154,0.579600989818573,0.5925729870796204,0.2127124965190887,-0.2039124965667724,-0.0186999998986721
2.07911767578125,-0.2111819982528686,0.6891779899597168,0.9062920212745668,0.1528999954462051,-0.3260124921798706,-0.0772750005125999
2.113560546875,-0.1719309985637664,0.6270909905433655,1.444962978363037,0.4130499958992004,-0.4225375056266784,-0.2129874974489212
2.1480029296875,-0.799701988697052,0.9750769734382628,0.2686440050601959,0.3519999980926513,-0.1977249979972839,-0.1567499935626983
2.182446044921875,-0.2026049941778183,0.4419969916343689,0.7413520216941833,0.0673749968409538,-0.1526249945163726,-0.0834624990820884
2.216888671875,-0.1035289987921714,-0.5010830163955688,1.8532559871673584,0.1553750038146972,-0.1671999990940094,-0.1714625060558319
2.251331298828125,0.3269689977169037,-0.9013940095901488,1.0964570045471191,0.4412375092506408,-0.0841500014066696,-0.1835625022649765
2.28577392578125,0.398157000541687,-0.9465600252151488,-0.3405759930610657,0.3519999980926513,-0.1293874979019165,-0.3130874931812286
2.320216796875,-0.4308770000934601,-1.498986005783081,-0.2454109936952591,0.2847625017166137,-0.1879625022411346,-0.2472250014543533
2.354659423828125,0.4464359879493713,-1.337643027305603,-0.2587049901485443,0.3544749915599823,0.05884999781847,-0.1029874980449676
2.389102294921875,0.7747079730033875,-1.0513689517974854,-0.9606069922447203,0.1601874977350235,0.0074249999597668,-0.0736999958753585
2.423544921875,0.3792749941349029,-1.0128179788589478,0.1108879968523979,-0.0681999996304512,0.112475000321865,0.0155375003814697
2.45798779296875,0.7404990196228027,-0.97843599319458,0.8052319884300232,-0.0376750007271766,0.0979000031948089,0.097350001335144
2.492430419921875,0.4215950071811676,-0.83399498462677,1.0776619911193848,-0.1049124971032142,0.0478499978780746,0.0643500015139579
2.526873291015625,0.2473019957542419,-0.8838310241699219,0.8401190042495728,0.0160875003784894,-0.0951500013470649,0.1535875052213668
2.56131591796875,0.9040380120277404,-0.7006919980049133,-0.3865019977092743,0.0356125012040138,-0.1733874976634979,0.0851124972105026
2.5957587890625,0.5765119791030884,-0.488889992237091,-0.6929720044136047,-0.0059124999679625,0.0123749999329447,-0.0224124994128942
2.630201416015625,0.4172840118408203,-0.4032630026340484,-0.9897069931030272,-0.080437496304512,0.1199000030755996,-0.0529375001788139
2.664644287109375,0.2411459982395172,-0.1634110063314438,-0.5446169972419739,-0.1977249979972839,0.1626625061035156,-0.1029874980449676
2.699087158203125,-0.404693990945816,0.0366120003163814,0.4470329880714416,-0.2149125039577484,0.2835249900817871,-0.0247499998658895
2.733530029296875,-0.2653700113296509,0.149616003036499,0.4047960042953491,-0.2417249977588653,0.1247124969959259,0.1523499935865402
2.76797265625,0.7705060243606567,0.1558900028467178,0.8238419890403748,-0.2001999914646148,0.0391874983906745,0.0753500014543533
2.802415283203125,0.1631039977073669,0.3123250007629394,0.2419410049915313,-0.0266750007867813,0.1211374998092651,-0.0126499999314546
2.83685791015625,-0.4335080087184906,0.3664819896221161,-0.5523790121078491,-0.0401500016450881,0.0734250023961067,0.1340624988079071
2.87130078125,0.6229400038719177,0.5015090107917786,-0.435694009065628,-0.0279124993830919,0.1541374921798706,0.1083500012755394
2.905743408203125,0.0006389999762177,0.4436500072479248,-0.437373012304306,0.0136124994605779,0.2897124886512756,0.0728750005364418
2.940186279296875,-0.0462739989161491,0.526265025138855,-0.8833180069923401,-0.0681999996304512,0.2932874858379364,0.1731124967336654
2.974629150390625,0.2324150055646896,0.5389689803123474,0.4550960063934326,-0.1464374959468841,0.3227125108242035,0.2048749923706054
3.00907177734375,0.2441509962081909,0.6576640009880066,0.5859469771385193,0.086899995803833,0.1736624985933303,0.1975875049829483
3.043514404296875,0.2028270065784454,0.8217179775238037,-0.9047020077705384,0.0686125010251998,0.1931875050067901,0.3404499888420105
3.077957275390625,1.1121790409088137,0.5321609973907471,-0.4135310053825378,-0.0646250024437904,0.0709500014781951,0.3478749990463257
3.11239990234375,1.1809699535369873,0.5054349899291992,-0.5716909766197205,-0.0768624991178512,0.1101374998688697,0.3368749916553497
3.1468427734375,0.9155439734458924,0.2408419996500015,-1.0748250484466553,-0.3284874856472015,0.0391874983906745,0.4394499957561493
3.18128564453125,1.89657998085022,-0.4456480145454407,-0.4675759971141815,-0.6313999891281128,0.0038499999791383,0.3966875076293945
3.215728271484375,1.4470319747924805,-0.6970750093460083,0.5511260032653809,-0.5666375160217285,0.1039500012993812,-0.0137499999254941
3.2501708984375,0.2566139996051788,-0.2666440010070801,0.8043519854545593,-0.5178250074386597,0.1662375032901764,-0.2813250124454498
3.28461376953125,-0.5001159906387329,-0.1668000072240829,1.3832930326461792,-0.3529624938964844,0.1809500008821487,-0.3375625014305115
3.319056884765625,-1.2116639614105225,-0.0985250025987625,2.0023109912872314,-0.1501500010490417,0.2432374954223632,-0.426800012588501
3.35349951171875,-2.144844055175781,-0.2642840147018432,1.5753610134124756,-0.0461999997496604,0.0906125009059906,-0.2580874860286712
3.3879423828125,-1.9351840019226076,-0.4900330007076263,0.8735659718513489,-0.0461999997496604,-0.0048124999739229,-0.0859375
3.422385009765625,-1.47776198387146,-0.9540560245513916,0.3418149948120117,-0.0279124993830919,-0.1757249981164932,0.0435874983668327
3.456827880859375,-0.5445200204849243,-1.0112040042877195,-0.1302289962768554,-0.0254375003278255,-0.0731500014662742,-0.0455125011503696
3.4912705078125,-0.8343769907951355,-0.5057979822158813,-0.1507260054349899,-0.1073874980211258,0.1101374998688697,-0.2055625021457672
3.52571337890625,-1.3194479942321775,-0.2123059928417205,0.1786659955978393,-0.1194875016808509,-0.0010999999940395,-0.0932250022888183
3.56015576171875,-0.2136059999465942,0.0320830009877681,0.6364529728889465,-0.0559624992311,-0.0035749999806284,-0.1970375031232834
3.594598876953125,-1.079483985900879,0.4435470104217529,0.4435029923915863,0.086899995803833,-0.0536249987781047,-0.1885125041007995
3.629041259765625,-0.8257709741592407,0.5852400064468384,0.0625,0.1138499975204467,-0.0756250023841857,-0.0455125011503696
3.663484130859375,-0.7116400003433228,0.25729501247406,0.8266230225563049,0.0966624990105629,-0.0621500015258789,-0.1322750002145767
3.6979267578125,-1.1319520473480225,-0.009537000209093,0.6863300204277039,0.3044250011444092,-0.1196250021457672,-0.1127500012516975
3.73236962890625,-1.138260006904602,-0.0178399998694658,-0.6410040259361267,0.2652375102043152,-0.0633874982595443,-0.0529375001788139
3.766812255859375,-0.7776569724082947,-0.1615269929170608,-0.2576619982719421,0.1406625062227249,-0.0756250023841857,-0.1005124971270561
3.801255126953125,-0.883571982383728,-0.195044994354248,-0.6577659845352173,0.278712511062622,-0.1111000031232833,-0.1054624989628791
3.835697998046875,-0.7911180257797241,0.0806899964809417,-1.81467604637146,0.0796125009655952,-0.1146750003099441,-0.0406999997794628
3.870140869140625,-0.6156299710273743,0.0046489997766911,-1.1401729583740234,-0.0963874980807304,-0.1526249945163726,-0.0027499999850988
3.90458349609375,-0.7147780060768127,-0.0002800000074785,-1.229086995124817,-0.0719124972820282,-0.2149125039577484,0.0460624992847442
3.9390263671875,-0.0482960008084774,0.0540819987654686,-0.5889999866485596,-0.1977249979972839,-0.0743874981999397,0.0448249988257885
3.973468994140625,-0.3657000064849853,0.340705007314682,0.2448569983243942,-0.1061500012874603,-0.2246749997138977,-0.0749375000596046
4.007911865234375,-0.7368749976158142,0.8572210073471069,-0.0720959976315498,-0.0633874982595443,-0.3162499964237213,-0.0211750008165836
4.0423544921875,-0.2167879939079284,1.020885944366455,0.4003269970417022,-0.0999625027179718,-0.2674374878406524,-0.02364999987185
4.07679736328125,-0.243487000465393,0.9780510067939758,0.8678510189056396,0.1016125008463859,-0.4102999866008758,-0.1115124970674514
4.111239990234375,-0.4236870110034942,1.1102509498596191,-0.3828310072422027,0.2677125036716461,-0.3236750066280365,-0.1090374961495399
4.145682861328125,-0.5628319978713989,1.142323017120361,-1.035109043121338,-0.1721500009298324,-0.1342000067234039,-0.0772750005125999
4.18012548828125,-0.7698900103569031,0.4050619900226593,1.5496200323104858,-0.3748250007629394,-0.0646250024437904,-0.0724624991416931
4.214568359375,-0.4840730130672455,-0.341172993183136,2.4520668983459477,-0.1366750001907348,0.1259499937295913,-0.0406999997794628
4.249010986328125,0.1680929958820343,-0.7526760101318359,1.556589961051941,-0.0218624994158744,-0.0731500014662742,-0.1164624989032745
4.283453857421875,0.8299210071563721,-1.1243499517440796,1.755787014961243,0.2494249939918518,-0.0156750008463859,-0.2337500005960464
4.317896484375,0.6152359843254089,-0.8228189945220947,0.3883819878101349,0.4142875075340271,-0.0596750006079673,-0.3290374875068664
4.352339111328125,0.1399690061807632,-0.7883939743041992,-0.4915589988231659,0.2836624979972839,0.0038499999791383,-0.2007499933242797
4.38678173828125,0.7086730003356934,-0.6020910143852234,-0.183908998966217,0.1651374995708465,0.0979000031948089,-0.1067000031471252
4.421224609375,0.2635050117969513,-0.652633011341095,0.3776699900627136,0.05884999781847,0.0391874983906745,0.0277750007808208
4.455667236328125,0.0521770007908344,-0.7267169952392578,0.4468879997730255,0.062424998730421,0.017187500372529,0.1670625060796737
4.490110107421875,0.2556309998035431,-0.6756280064582825,0.1392689943313598,-0.0071499999612569,-0.0719124972820282,0.2231625020503997
4.524552978515625,0.6791120171546936,-0.7138239741325378,0.4672540128231048,0.084425002336502,-0.1121999993920326,0.14011250436306
4.558995849609375,0.7364720106124878,-0.5336949825286865,-0.5882419943809509,0.206662505865097,0.0686125010251998,0.0533500015735626
4.5934384765625,0.3374370038509369,-0.26494300365448,-0.9868599772453308,0.0148499999195337,0.0661375001072883,-0.0199375003576278
4.62788134765625,0.4212819933891296,-0.1369200050830841,0.121359996497631,0.038087498396635,0.0673749968409538,-0.0639375001192092
4.66232373046875,-0.0396130010485649,0.1481129974126815,-0.2403150051832199,0.1211374998092651,0.2725250124931335,-0.0149875003844499
4.696766845703125,-0.2456710040569305,0.1524060070514679,-0.4696190059185028,-0.1207249984145164,0.2261874973773956,0.1254000067710876
4.731209716796875,0.0783459991216659,-0.1405680030584335,0.7239590287208557,-0.1109625026583671,0.017187500372529,0.1755875051021576
4.76565234375,0.2156600058078766,0.0939150005578994,-0.1241339966654777,0.0221375003457069,0.0721874982118606,0.2158749997615814
4.800095458984375,0.3016690015792846,0.1650449931621551,-0.990530014038086,-0.1293874979019165,0.1174250021576881,0.2646875083446502
4.8345380859375,0.3828659951686859,0.1123630031943321,-0.5439770221710205,-0.2795374989509582,0.0991374999284744,0.232924997806549
4.86898095703125,0.0819189995527267,0.2234909981489181,-0.063119001686573,-0.1464374959468841,0.0893749967217445,0.2208250015974044
4.903423583984375,0.0291569996625185,0.482336014509201,-0.6062960028648376,-0.1684374958276748,0.3507624864578247,0.3196874856948852
4.9378662109375,0.2987079918384552,0.6439189910888672,0.1729589998722076,-0.3297249972820282,0.2750000059604645,0.3771624863147735
4.97230908203125,0.5688480138778687,0.5735489726066589,2.117503881454468,0.0416624993085861,0.3667125105857849,0.3454000055789947
5.006751708984375,0.5352929830551147,0.7010869979858398,0.25552499294281,0.4375250041484833,0.4375250041484833,0.3673999905586242
5.0411943359375,0.8290860056877136,0.9045050144195556,-1.0260289907455444,0.116187497973442,0.1149500012397766,0.4334000051021576
5.07563720703125,1.1274319887161257,0.3696199953556061,-0.4369899928569793,-0.0461999997496604,0.147949993610382,0.4174500107765198
5.110079833984375,0.3996460139751434,0.0111769996583461,-0.4478940069675445,-0.2331999987363815,0.1431374996900558,0.3588750064373016
5.144522705078125,0.1428090035915374,-0.4277749955654144,0.0916040018200874,-0.433537483215332,-0.002337499987334,0.3673999905586242
5.17896533203125,1.0361629724502563,-0.4105780124664306,0.4078260064125061,-0.4603500068187713,-0.0671000033617019,0.1156374961137771
5.213408203125,0.1578689962625503,-0.2782090008258819,1.153309941291809,-0.1622499972581863,0.0563750006258487,-0.1347499936819076
5.247850830078125,-0.5319520235061646,0.1434590071439743,0.2834210097789764,0.0796125009655952,0.0404249988496303,-0.110275000333786
5.282293701171875,-1.181465983390808,0.0866210013628006,-0.1163330003619194,-0.0218624994158744,0.2139499932527542,-0.0004124999977648
5.316736328125,-1.8135290145874023,-0.2699790000915527,0.5753719806671143,-0.0939124971628189,0.0941874980926513,0.2256374955177307
5.35117919921875,-1.0430090427398682,-0.6457599997520447,0.9917259812355042,-0.1721500009298324,0.1149500012397766,0.4406875073909759
5.385621826171875,-0.1548330038785934,-0.9996830224990844,1.5850880146026611,-0.1659625023603439,0.1882375031709671,0.2536875009536743
5.420064453125,-0.511231005191803,-1.03459894657135,1.8518589735031128,0.055137500166893,-0.0145749999210238,-0.0296999998390674
5.454507080078125,-0.7015320062637329,-0.3103120028972626,0.5290570259094238,0.3129499852657318,-0.0658624991774559,-0.1335124969482422
5.488949951171875,-0.2309930026531219,0.2190379947423935,-0.9652850031852722,0.1528999954462051,0.1614249944686889,-0.1934625059366226
5.523392578125,-0.5124769806861877,0.3713839948177337,-0.6389979720115662,-0.0120999999344348,-0.0560999996960163,-0.2520374953746795
5.55783544921875,-0.355089008808136,0.6393460035324097,-0.3861719965934753,-0.0156750008463859,-0.0266750007867813,-0.1115124970674514
5.592278076171875,0.2901920080184936,0.3813090026378631,0.1895799934864044,0.083187498152256,0.0563750006258487,-0.1518000066280365
5.626720947265625,-0.4398190081119537,0.1789029985666275,-0.4958620071411133,0.1113749966025352,-0.1073874980211258,-0.1775124967098236
5.66116357421875,-0.2265470027923584,0.0610559992492198,-0.1506360024213791,0.0428999997675418,-0.0671000033617019,-0.1909874975681305
5.695606689453125,-0.605783998966217,-0.118087999522686,-0.1848489940166473,0.1687124967575073,-0.0401500016450881,-0.2813250124454498
5.730049072265625,-1.1041890382766724,0.3327629864215851,-0.9277129769325256,0.0123749999329447,-0.0756250023841857,-0.2679874897003174
5.764491943359375,-0.9234840273857116,0.3479729890823364,-0.1510329991579055,-0.004674999974668,-0.080437496304512,-0.1922249943017959
5.7989345703125,-0.6154040098190308,0.543088972568512,-0.4137009978294372,0.0966624990105629,-0.0743874981999397,-0.2252250015735626
5.83337744140625,-1.198928952217102,0.618740975856781,-0.0946080014109611,-0.0303875003010034,-0.1451999992132187,-0.1249874979257583
5.867820068359375,-0.4158399999141693,0.3089840114116668,0.5154970288276672,0.0563750006258487,-0.170912504196167,0.0325874984264373
5.902262939453125,-0.257311999797821,0.2510769963264465,0.471343994140625,0.1248499974608421,-0.2589125037193298,-0.0882750004529953
5.93670556640625,-0.8356770277023315,0.2245569974184036,0.2492270022630691,0.2103749960660934,-0.3126749992370605,-0.0101749999448657
5.9711484375,-0.3297230005264282,0.12568299472332,-0.5578889846801758,0.1296624988317489,-0.3114374876022339,0.0313500016927719
6.005591064453125,-0.1063880026340484,0.0690570026636123,0.2334080040454864,0.1541374921798706,-0.2734875082969665,-0.1689874976873397
6.040033935546875,-0.8925459980964661,0.3573490083217621,-0.4385910034179687,0.2849000096321106,-0.1769624948501587,-0.1494625061750412
6.0744765625,-0.7829890251159668,0.5502030253410339,-0.7844750285148621,0.0270875003188848,-0.3187249898910522,-0.0662750005722045
6.108919677734375,0.0234960000962018,0.718038022518158,0.1963379979133606,-0.0351999998092651,-0.3529624938964844,-0.11769999563694
6.143362060546875,-0.1322409957647323,0.8572450280189514,0.2510110139846802,0.0416624993085861,-0.0901999995112419,-0.1616999953985214
6.177804931640625,-0.8403739929199219,0.6456480026245117,-0.0605719983577728,-0.3113000094890594,-0.0413874983787536,-0.0309375002980232
6.21224755859375,-0.0229250006377697,-0.1527370065450668,2.047657966613769,-0.3565374910831451,-0.1464374959468841,-0.0602249987423419
6.246690673828125,0.1282539963722229,-0.5904070138931274,2.090920925140381,0.3056625127792358,-0.1329624950885772,-0.2055625021457672
6.28113330078125,-0.5856829881668091,-0.4762530028820038,-0.8873530030250549,0.4338124990463257,-0.0218624994158744,-0.1922249943017959
6.315575927734375,-0.2169079929590225,-0.6196449995040894,-0.8438199758529663,0.05884999781847,-0.0169124994426965,-0.0809874981641769
6.350018310546875,-0.1051670014858245,-0.8338760137557983,0.2465920001268386,0.062424998730421,0.2102375030517578,-0.0444125011563301
6.38446142578125,-0.1467829942703247,-0.9903900027275084,0.2643469870090484,0.025849999859929,0.1344749927520752,0.0912999957799911
6.418904296875,0.2677229940891266,-0.7056909799575806,0.6656969785690308,-0.0914374962449073,0.0929500013589859,0.0925374999642372
6.453346923828125,0.4454739987850189,-0.7103930115699768,0.8282899856567383,0.0453750006854534,-0.0463375002145767,0.1266375035047531
6.487789794921875,0.8286240100860596,-0.5176870226860046,-0.6105480194091797,0.1566125005483627,0.0038499999791383,0.1473999917507171
6.522232421875,1.075984001159668,-0.2645570039749145,-1.0915100574493408,-0.0987249985337257,0.0819500014185905,0.0851124972105026
6.55667529296875,0.7705979943275452,-0.1655579954385757,-0.1804350018501281,-0.2356749922037124,0.1113749966025352,0.0057749999687075
6.591117919921875,0.2687259912490845,-0.1112300008535385,0.9260309934616088,-0.1989624947309494,0.0941874980926513,0.0460624992847442
6.62556103515625,0.7924879789352417,-0.0387809984385967,0.8506590127944946,-0.0133375003933906,-0.0193875003606081,0.0533500015735626
6.66000341796875,0.5089529752731323,0.016067000105977,-0.0552139990031719,-0.0144375003874301,-0.0230999998748302,-0.0651749968528747
6.6944462890625,0.3155489861965179,0.1513569951057434,-0.2918770015239715,0.0196624994277954,-0.0365750007331371,-0.03575000166893
6.728888916015625,0.5684970021247864,0.3318789899349212,-0.452331006526947,-0.0364375002682209,0.1504250019788742,-0.0284624993801116
6.763331787109375,0.1262850016355514,0.2474299967288971,0.1389209926128387,-0.0193875003606081,0.0563750006258487,-0.0639375001192092
6.7977744140625,0.1557179987430572,0.5251049995422363,-0.3229300081729889,-0.0156750008463859,0.1003749966621398,0.0631124973297119
6.83221728515625,0.6792240142822266,0.3904690146446228,0.1888229995965957,-0.1024374961853027,0.1748999953269958,0.0912999957799911
6.866659912109375,0.5833340287208557,0.30621999502182,0.4857789874076843,-0.0059124999679625,-0.0071499999612569,0.026537500321865
6.9011025390625,0.3503000140190124,0.5294380187988281,-0.0566419996321201,0.05884999781847,0.055137500166893,0.0521125011146068
6.93554541015625,0.4072049856185913,0.4908510148525238,-0.7243099808692932,0.086899995803833,0.112475000321865,0.0728750005364418
6.969988037109375,0.5115119814872742,0.5230749845504761,-0.6167929768562317,0.0428999997675418,0.1662375032901764,0.0155375003814697
7.004430908203125,-0.1155930012464523,0.4795509874820709,-0.0892800018191337,0.0979000031948089,0.1931875050067901,0.0728750005364418
7.038873779296875,0.189761996269226,0.6107479929924011,-0.2630130052566528,0.2359499931335449,0.3519999980926513,0.1706375032663345
7.073316650390625,-0.1564760059118271,1.0170600414276123,-0.3695380091667175,-0.0108624994754791,0.2921875119209289,0.1046374961733818
7.10775927734375,-0.4387010037899017,0.8096969723701477,0.548380970954895,-0.1574375033378601,0.3262875080108642,0.3062124848365783
7.142201904296875,0.2941049933433532,0.2339629977941513,0.7573040127754211,-0.0999625027179718,0.4265249967575073,0.2671625018119812
7.176644775390625,0.001912000006996,-0.2616159915924072,-0.3490169942378998,-0.2832500040531158,0.2664749920368194,0.2378749996423721
7.21108740234375,1.1142059564590454,-0.4832769930362701,0.8756070137023926,-0.3748250007629394,0.1491875052452087,0.0105875004082918
7.2455302734375,0.3600519895553589,-0.778980016708374,1.731152057647705,0.1199000030755996,0.2994749844074249,-0.2740375101566314
7.279972900390625,-1.1167969703674316,-0.3929759860038757,-0.3322699964046478,0.2628999948501587,0.2469500005245208,-0.157987505197525
7.314415771484375,-1.316709041595459,-0.5003060102462769,-0.3823930025100708,-0.2222000062465667,0.1564749926328659,0.054587498307228
7.3488583984375,-0.7224439978599548,-1.0906000137329102,1.3360309600830078,-0.1659625023603439,0.0233750008046627,0.0838750004768371
7.38330126953125,-0.8743659853935242,-0.8706690073013306,0.050415001809597,0.055137500166893,0.0001374999992549,0.0815375000238418
7.417743896484375,-0.4853520095348358,-0.8662469983100891,-0.8144869804382324,-0.1622499972581863,0.0196624994277954,-0.0149875003844499
7.452186767578125,-0.5587049722671509,-0.8599720001220703,0.2792960107326507,-0.0963874980807304,0.0061874999664723,-0.1824624985456466
7.48662939453125,-1.3854399919509888,-0.6289499998092651,-0.1673189997673034,0.0686125010251998,0.1113749966025352,-0.1225124970078468
7.521072265625,-0.9790629744529724,-0.2426699995994568,-1.001170992851257,-0.2734875082969665,0.0123749999329447,-0.0602249987423419
7.555514892578125,-0.5061929821968079,-0.2394080013036728,0.8119459748268127,-0.306487500667572,-0.0340999998152256,-0.0627000033855438
7.589957763671875,-0.3380799889564514,0.0230849999934434,1.040842056274414,-0.0279124993830919,-0.0071499999612569,-0.0907500013709068
7.624400390625,-1.228916049003601,0.3400959968566894,0.177833005785942,-0.1354375034570694,-0.1293874979019165,-0.0259875003248453
7.65884326171875,-0.3878870010375976,0.2701880037784576,0.9814599752426147,-0.0999625027179718,-0.2099625021219253,0.0203499998897314
7.693286376953125,-0.6431040167808533,0.1754850000143051,0.8529549837112427,0.1859000027179718,-0.0694374963641166,-0.0516999997198581
7.72772900390625,-1.0946500301361084,0.3775190114974975,-0.4068970084190368,0.1076624989509582,-0.1366750001907348,0.0155375003814697
7.762171875,-0.6244400143623352,0.3010149896144867,0.3051190078258514,0.0306624993681907,-0.1721500009298324,0.0521125011146068
7.796614501953125,-0.6431339979171753,0.3177970051765442,0.1056639999151229,0.3239499926567077,-0.113437496125698,0.0057749999687075
7.831057373046875,-0.9775609970092772,0.7222999930381775,-1.3855810165405271,0.1211374998092651,-0.2331999987363815,0.1156374961137771
7.8655,-0.1078919991850853,0.6193860173225403,-0.4748170077800751,-0.113437496125698,-0.191674992442131,0.1168750002980232
7.89994287109375,-0.5330139994621277,0.6185500025749207,0.6869609951972961,0.088137499988079,-0.2514874935150146,0.0290124993771314
7.934385498046875,-0.5139830112457275,0.6100879907608032,-0.5478760004043579,0.3544749915599823,-0.2967250049114227,0.1560624986886978
7.96882861328125,0.1111700013279914,0.807623028755188,-1.4817990064620972,-0.0266750007867813,-0.2857249975204468,0.0851124972105026
8.00327099609375,0.0170009993016719,0.4806259870529175,0.3304310142993927,0.0416624993085861,-0.3260124921798706,-0.0296999998390674
8.037714111328125,-0.5170159935951233,0.531470000743866,-0.7050290107727051,0.2689499855041504,-0.2063875049352646,0.0325874984264373
8.072156494140625,-0.130838006734848,0.447403997182846,-1.2551300525665283,-0.002199999988079,-0.3517250120639801,0.0191124994307756
8.106599609375,-0.1699060052633285,0.0478820018470287,-0.6472529768943787,0.0503249987959861,-0.3712500035762787,-0.0089375004172325
8.1410419921875,0.1235160008072853,0.1211849972605705,-1.0117030143737793,0.1064250022172927,-0.2967250049114227,-0.0247499998658895
8.175485107421874,0.4212299883365631,0.280811995267868,-0.8708119988441467,-0.3407250046730041,-0.128150001168251,-0.142037495970726
8.209927490234374,-0.8245350122451782,0.1903430074453354,2.3289239406585693,-0.5666375160217285,0.0538999997079372,-0.2337500005960464
8.244370361328125,-1.830469012260437,-0.141754999756813,3.1955270767211914,-0.1219625025987625,-0.1086250022053718,0.0167750008404254
8.27881298828125,-0.5576620101928711,-0.2340900003910064,1.670868992805481,-0.031624998897314,-0.2502500116825104,0.0912999957799911
8.313255859375,0.1567630022764206,-0.3120900094509125,1.1136900186538696,0.0930875018239021,-0.2331999987363815,-0.1494625061750412
8.347698486328126,-0.7229019999504089,-0.1964509934186935,0.0477639995515346,0.2494249939918518,-0.0499125011265277,-0.1372250020503997
8.382141357421874,-0.3620060086250305,-0.3449949920177459,-0.4825510084629059,0.1711875051259994,0.086899995803833,0.0240624994039535
8.416583984375,0.2039290070533752,-0.4261359870433807,-0.111185997724533,-0.002199999988079,0.1137124970555305,0.0582999996840953
8.45102685546875,0.2625260055065155,-0.7112870216369629,1.1949520111083984,0.0796125009655952,0.2297624945640564,0.1168750002980232
8.485469482421875,0.1407299935817718,-0.6207839846611023,0.8262540102005005,0.1993750035762787,0.233474999666214,0.208587497472763
8.519912353515625,0.2444539964199066,-0.7589390277862549,0.8283950090408325,0.1748999953269958,0.1564749926328659,0.2646875083446502
8.554355224609376,0.2810499966144562,-0.7355989813804626,0.353424996137619,0.1456124931573867,0.1259499937295913,0.2659249901771545
8.588798095703124,0.4948070049285888,-0.8467299938201904,0.5274479985237122,0.1003749966621398,0.1211374998092651,0.2806375026702881
8.62324072265625,0.5299440026283264,-0.764648973941803,0.2940349876880646,0.2531374990940094,0.1357125043869018,0.2061125040054321
8.65768359375,0.1434630006551742,-0.355336993932724,-0.6408969759941101,0.201712504029274,0.1614249944686889,0.2048749923706054
8.692126220703125,0.3190140128135681,-0.1985920071601867,-0.2642619907855987,-0.0389125011861324,0.2004749923944473,0.2769249975681305
8.726569091796875,0.5768349766731262,-0.2061160057783126,1.463811993598938,0.2299000024795532,0.1687124967575073,0.171875
8.76101171875,-0.332163006067276,0.0556810013949871,0.1919520050287246,0.4692874848842621,0.3885749876499176,0.3514499962329864
8.79545458984375,0.6029809713363647,0.0426909998059272,-0.5379930138587952,0.1076624989509582,0.1516624987125396,0.3539249897003174
8.82989697265625,1.0592989921569824,-0.1700890064239502,0.8688250184059143,0.1394249945878982,0.0208999998867511,0.1083500012755394
8.864340087890625,-0.1804949939250946,0.0761379972100257,0.0187069997191429,0.3544749915599823,0.086899995803833,0.1352999955415725
8.898782958984375,-0.0732560008764267,0.0991320013999939,-1.4651479721069336,0.1871374994516372,0.1931875050067901,0.2684000134468078
8.9332255859375,0.2925820052623749,0.0757400020956993,-0.5709239840507507,-0.1317249983549118,0.2762374877929687,0.23539999127388
8.96766845703125,-0.0092099998146295,-0.0669260025024414,0.6426630020141602,0.0563750006258487,0.2517625093460083,0.2843500077724457
9.002111083984374,-0.0231909994035959,0.0255200006067752,-0.1951889991760254,0.198137491941452,0.294524997472763,0.3221625089645386
9.036553955078125,-0.1652210056781768,0.3442690074443817,-0.6426659822463989,-0.0376750007271766,0.2774749994277954,0.3404499888420105
9.07099658203125,-0.4431020021438598,0.3250899910926819,0.386242002248764,0.0783749967813491,0.4338124990463257,0.3698749840259552
9.105439453125,-0.9766119718551636,0.3991369903087616,-0.662909984588623,0.1369500011205673,0.4790500104427337,0.6190249919891357
9.139882080078126,-0.1306490004062652,0.1906459927558899,-0.2230249941349029,-0.1794375032186508,0.554812490940094,0.7045499682426453
9.1743251953125,-0.0787409991025924,-0.2399629950523376,1.3280980587005615,0.0087999999523162,0.5145249962806702,0.6898375153541565
9.208767822265624,-0.0991910025477409,0.059298001229763,0.0162320006638765,0.3617624938488006,0.5865749716758728,0.7632625102996826
9.243210693359377,0.3149319887161255,0.3045260012149811,-0.7833979725837708,0.201712504029274,0.7099124789237976,0.897599995136261
9.2776533203125,-0.2279949933290481,-0.0640129968523979,0.5815230011940002,-0.1586750000715255,0.3031874895095825,0.9976999759674072
9.31209619140625,0.8099520206451416,-0.7358329892158508,2.9053730964660645,0.0820875018835067,0.2824249863624573,1.039362549781799
9.34653857421875,1.3744670152664185,-0.4282320141792297,0.8906499743461609,0.4827624857425689,0.3031874895095825,0.6287875175476074
9.380981689453124,0.706991970539093,0.2633579969406128,-1.0086870193481443,0.3434749841690063,-0.1379124969244003,0.346637487411499
9.41542431640625,0.2262499928474426,0.3931519985198974,-0.1870059967041015,0.2432374954223632,0.1431374996900558,0.3392125070095062
9.449866943359376,-0.5303540229797363,0.1676609963178634,0.1419620066881179,0.1639000028371811,0.3349500000476837,0.3906374871730804
9.4843095703125,-1.1144429445266724,-0.1971500068902969,0.6311399936676025,0.0636624991893768,0.2529999911785126,0.3783999979496002
9.51875244140625,-1.062397003173828,-0.6510769724845886,0.1977570056915283,0.0808499976992607,0.2176624983549118,0.4724499881267547
9.553195068359376,0.1714480072259903,-0.4298329949378967,-0.5210480093955994,0.1003749966621398,0.1199000030755996,0.2305874973535537
9.58763818359375,-0.5029680132865906,-0.1239949986338615,-0.7824919819831848,0.1748999953269958,0.3592875003814697,0.0167750008404254
9.622080810546874,-0.9917330145835876,-0.000990999978967,-1.3651210069656372,-0.1537249982357025,0.7539125084877014,0.272112488746643
9.656523681640625,-1.0775209665298462,0.1977880001068115,0.2571749985218048,-0.582587480545044,0.3788124918937683,0.3062124848365783
