seconds_elapsed,accel_x,accel_y,accel_z,gyro_x,gyro_y,gyro_z
0.195395751953125,-0.0409999974071979,0.178299993276596,0.3596999943256378,-0.1178795397281646,-0.0778591409325599,-0.0291120912879705
0.215223876953125,-0.0324999988079071,0.179199993610382,0.1620000004768371,-0.0643328353762626,-0.2065248042345047,-0.0436506830155849
0.235076904296875,-0.2294999957084655,0.287200003862381,0.2321999967098236,-0.0095469513908028,-0.1823170930147171,-0.0601614974439144
0.2549287109375,-0.3391999900341034,0.3255999982357025,0.2793000042438507,0.1351233869791031,-0.2443809956312179,-0.0108559476211667
0.27478173828125,-0.0661999955773353,0.4027999937534332,-0.6942999958992004,0.134721964597702,-0.2535090744495392,-0.0290248245000839
0.294634765625,-0.0586999990046024,0.3944000005722046,-1.0770999193191528,0.0456229075789451,-0.2342929989099502,-0.094265230000019
0.31448779296875,-0.465499997138977,0.5338000059127808,-0.9078999757766724,-0.0739495977759361,-0.2685014605522156,-0.0773878991603851
0.334339599609375,-0.2714999914169311,0.5521000027656555,-0.6523000001907349,-0.1348790377378463,-0.3689800500869751,-0.0927991569042205
0.354192626953125,-0.2228999882936477,0.602400004863739,-0.0188999995589256,-0.1056796833872795,-0.2889218032360077,-0.1810604631900787
0.374045654296875,-0.5795999765396118,0.7425000071525574,0.0859000012278556,0.0143291531130671,-0.220452532172203,-0.218218520283699
0.393897216796875,-0.9294999837875366,0.9049999713897704,-0.0368999987840652,0.0583987161517143,-0.1584933549165725,-0.1789311468601226
0.41375048828125,-1.0684999227523804,0.8610000014305115,0.7235999703407288,0.0403694659471511,-0.2386388629674911,-0.0451516658067703
0.433603515625,-0.45619997382164,0.548799991607666,1.1829999685287476,0.0973544642329216,-0.4002389013767242,-0.0130550628527998
0.453455078125,-0.1964000016450882,0.4368000030517578,1.1621999740600586,0.2206968814134597,-0.361702024936676,-0.0205599777400493
0.47330810546875,-0.1394999921321869,0.1777999997138977,0.8294000029563904,0.3725579679012298,-0.297700822353363,-0.0111875608563423
0.49315966796875,-0.091399997472763,-0.1348000019788742,0.2567999958992004,0.4611683487892151,-0.2346769720315933,-0.0129503430798649
0.513012939453125,-0.1582999974489212,-0.4972999989986419,0.3102999925613403,0.437833309173584,-0.3378433883190155,-0.043214350938797
0.532865966796875,0.1333999931812286,-0.8204999566078186,-0.0148999998345971,0.3817034959793091,-0.5398827195167542,-0.1315629184246063
0.552718994140625,0.4949999749660492,-0.7554000020027161,-0.1356000006198883,0.3799756169319153,-0.4822693765163421,-0.2662499845027923
0.572572509765625,0.5609999895095825,-0.4605999886989593,-0.3642999827861786,0.431393027305603,-0.2807885706424713,-0.3997851312160492
0.592423828125,-0.3312999904155731,0.4266999959945678,-0.9124999642372132,0.3366740047931671,0.0233001448214054,-0.4664566814899444
0.612277099609375,-1.5841000080108645,0.871999979019165,-0.3614999949932098,0.0093898717314004,0.183050125837326,-0.3425557613372803
0.632130126953125,-2.103299856185913,0.4440999925136566,1.4398999214172363,-0.3441614806652069,0.1462934911251068,-0.118560217320919
0.651981689453125,-1.5686999559402466,-0.2624000012874603,3.257200002670288,-0.4372573494911194,0.024207716807723,0.085172064602375
0.6718349609375,-0.484499990940094,-0.9979999661445618,4.253999710083008,-0.2201209217309951,0.0426209419965744,0.2069087773561477
0.69168798828125,0.4668999910354614,-1.5299999713897705,3.680699825286865,0.2137155681848526,0.1597499847412109,0.1831897646188736
0.71153955078125,0.7994999885559082,-1.6387999057769775,1.462999939918518,0.4914672672748565,0.2177472710609436,0.0948237404227256
0.731392578125,0.9513999819755554,-1.689099907875061,0.0065999999642372,0.4301014840602875,0.094422310590744,0.0081332344561815
0.751244384765625,1.136799931526184,-1.6922999620437622,-1.0303000211715698,0.2319542616605758,-0.1850223541259765,-0.0766723155975341
0.771097412109375,1.493499994277954,-1.6351999044418335,-1.3715999126434326,0.0753109604120254,-0.2835985422134399,-0.1078962534666061
0.810802001953125,2.145900011062622,-1.3306999206542969,-0.9156000018119812,0.0927118882536888,0.0101752690970897,-0.0392699092626571
0.830655029296875,2.047800064086914,-0.9860000014305116,-1.120100021362305,0.1103048101067543,0.0867254137992858,-0.0244346093386411
0.85050830078125,1.7387999296188354,-0.7635999917984009,-1.135599970817566,0.0049567348323762,0.1141096279025077,0.0458148941397666
0.870361328125,1.4844999313354492,-0.6811999678611755,-1.2211999893188477,-0.241850271821022,0.060178954154253,0.1180715262889862
0.89021435546875,1.5994999408721924,-0.7833999991416931,-0.0986000001430511,-0.5091300010681152,0.1114043667912483,0.1669930964708328
0.91006591796875,1.3358999490737915,-0.9783999919891356,2.1533000469207764,-0.5140867233276367,0.0922930091619491,0.1800830662250518
0.929919189453125,1.5877000093460083,-1.028599977493286,3.2418999671936035,-0.2463532239198684,-0.0306654348969459,0.1730319410562515
0.949770751953125,1.63319993019104,-0.8007999658584595,2.5794999599456787,0.1057145893573761,-0.1100430116057396,0.0794822946190834
0.969623779296875,1.3654999732971191,-0.4944999814033508,0.5256999731063843,0.3230429887771606,-0.0720995515584945,0.0364599265158176
0.989476806640625,1.4223999977111816,-0.3513999879360199,-1.1852999925613403,0.2339439392089843,-0.0160046685487031,-0.0199491139501333
1.00932861328125,1.3358999490737915,-0.3291999995708465,-1.374699950218201,0.0076096355915069,-0.1318770796060562,-0.1211782097816467
1.029181640625,1.1823999881744385,-0.0648000016808509,-1.0931999683380127,-0.1488591283559799,-0.1743583977222442,-0.2110277563333511
1.04903466796875,0.8169999718666077,0.1614999920129776,-0.6942999958992004,-0.1436929553747177,-0.0700575187802314,-0.2554289400577545
1.0688876953125,0.4843999743461609,0.350600004196167,-0.3291999995708465,-0.086812674999237,0.0139451809227466,-0.2479065656661987
1.088739501953125,0.262499988079071,0.5234999656677246,-0.4747999906539917,-0.0676489621400833,0.0285535864531993,-0.2199987471103668
1.108592529296875,0.2821999788284302,0.5701999664306641,-0.4883999824523926,-0.1196946799755096,0.0594284608960151,-0.1919513046741485
1.12844580078125,0.0385999977588653,0.5751000046730042,-0.3583999872207641,-0.1832770258188247,0.0250105690211057,-0.1556135565042495
1.148297119140625,0.1409000009298324,0.469899982213974,-0.2125999927520752,-0.2130523473024368,-0.0496546179056167,-0.1114567220211029
1.168150634765625,0.4630999863147735,0.3712999820709228,-0.1979999989271164,-0.1897521913051605,-0.018291050568223,-0.0878424197435379
1.188003662109375,0.623699963092804,0.2083999961614608,-0.4007000029087066,-0.1123817488551139,0.0535816065967083,-0.1061683744192123
1.207855224609375,0.249099999666214,0.2474999874830246,-0.7040999531745911,-0.0954869613051414,0.1132893189787864,-0.1287703961133957
1.227708251953125,-0.1620000004768371,0.3127000033855438,-1.0543999671936035,-0.1406735330820083,0.0693070217967033,-0.0869173929095268
1.2475615234375,0.0427999980747699,0.3066999912261963,-1.3888999223709106,-0.2293188124895095,0.0296182371675968,-0.0344178937375545
1.26741455078125,0.4417999982833862,0.2566999793052673,-1.2894999980926514,-0.3044203221797943,0.1208989545702934,-0.0439822971820831
1.28726611328125,0.3768999874591827,0.3470999896526336,-0.7835999727249146,-0.31330406665802,0.2300343960523605,-0.0830253139138221
1.307119140625,0.1873999983072281,0.5076999664306641,-0.277099996805191,-0.2616074085235595,0.2650282382965088,-0.0910887345671653
1.326972412109375,0.1026000007987022,0.7764999866485596,0.1560999900102615,-0.1930159628391266,0.2782054841518402,-0.0717679411172866
1.346823974609375,0.2047999948263168,0.9835000038146972,0.4781999886035919,-0.0694641023874282,0.2308721542358398,-0.0373675003647804
1.366677001953125,0.2561999857425689,1.1966999769210815,-0.0229000002145767,0.0363203026354312,0.2276258468627929,0.0023387412074953
1.386530029296875,0.1762000024318695,1.399399995803833,-0.6324999928474426,0.0567057467997074,0.2630036771297455,0.0688183307647705
1.406381591796875,0.2830999791622162,1.3514000177383425,-0.699999988079071,0.0209614038467407,0.2548006176948547,0.156503677368164
1.4262333984375,0.7042999863624573,1.1606999635696411,-0.3482999801635742,-0.0066322511993348,0.1955466866493225,0.2034879326820373
1.446087890625,0.9825999736785888,1.1793999671936035,-0.3324999809265136,0.0047123888507485,0.1755452156066894,0.2195275127887725
1.465939453125,1.245100021362305,1.097100019454956,-0.2373999953269958,0.0130550628527998,0.2854486107826233,0.2332981675863266
1.48579248046875,1.0052999258041382,0.9440999627113342,-0.3556999862194061,-0.0442440956830978,0.3399028778076172,0.2526538670063019
1.505645751953125,1.07669997215271,0.545799970626831,-0.468099981546402,-0.2621135413646698,0.3020466864109039,0.2602460384368896
1.525498779296875,1.1890000104904177,0.0197999998927116,0.1851999908685684,-0.4947659373283386,0.2077988982200622,0.1636246144771576
1.545350341796875,0.9196999669075012,-0.4521999955177307,1.2786999940872192,-0.5260422229766846,0.0954695120453834,-0.0024260077625513
1.565203369140625,0.4970999956130981,-0.6987999677658081,0.8382999897003174,-0.4203450977802276,0.1494350880384445,-0.0907745733857154
1.585056884765625,0.3559999763965606,-0.9027000069618224,0.0151999993249773,-0.4439070522785187,0.3244392573833465,-0.1193630695343017
1.604908203125,0.3565999865531921,-1.2863999605178833,0.3893999755382538,-0.6657732725143433,0.2572789788246155,-0.2190737277269363
1.62476123046875,0.1468999981880188,-1.3418999910354614,1.1482999324798584,-0.789761483669281,0.0965167060494422,-0.3477219343185425
1.644614501953125,-0.53329998254776,-1.2032999992370603,1.5240999460220337,-0.7350454330444336,0.0396364256739616,-0.3916344344615936
1.6644658203125,-1.3478000164031982,-0.8752999901771545,2.012399911880493,-0.5351877808570862,0.0642281174659729,-0.3407580852508545
1.6843193359375,-1.55239999294281,-0.7396000027656555,2.143499851226806,-0.225828155875206,0.1351757496595382,-0.1831723004579544
1.70417236328125,-1.272699952125549,-0.8780999779701233,1.2769999504089355,0.0023387412074953,0.1223301291465759,-0.0851895213127136
1.724025390625,-1.274999976158142,-0.7755999565124512,-0.0158999990671873,-0.0494102723896503,0.07370525598526,-0.0845961049199104
1.743876953125,-1.5788999795913696,-0.7021999955177307,0.1870999932289123,-0.2382374405860901,0.0176627319306135,-0.0873188227415084
1.763730224609375,-1.577799916267395,-0.7990999817848206,1.0338000059127808,-0.2347816973924636,0.0005235987482592,-0.0514523051679134
1.783583251953125,-1.149899959564209,-0.915999948978424,1.439199924468994,-0.0251152869313955,0.0391302816569805,-0.0603534840047359
1.803434814453125,-0.8804999589920044,-0.9038999676704408,0.8090999722480774,0.1693841964006424,0.1001295372843742,-0.1298001408576965
1.823287841796875,-1.309000015258789,-0.505899965763092,-0.0810999944806099,0.1624726951122284,0.1541474759578704,-0.1737998872995376
1.84314111328125,-1.6579999923706057,-0.2793000042438507,0.048200000077486,0.0249582082033157,0.110409528017044,-0.1285784095525741
1.86299267578125,-1.152400016784668,-0.3725999891757965,0.6100999712944031,-0.0585208907723426,-0.0488692186772823,-0.0632332786917686
1.882845703125,-0.4843999743461609,-0.461899995803833,0.986299991607666,0.0207519643008708,-0.1574286967515945,-0.0525518618524074
1.90269873046875,-0.1709000021219253,-0.2228999882936477,0.5902999639511108,0.1414414793252945,-0.1129402518272399,-0.0876155272126197
1.922552001953125,-0.582099974155426,0.0142000000923872,0.4676999747753143,0.2129650712013244,-0.0679980292916297,-0.1146506816148758
1.942403564453125,-1.1100000143051147,0.2872999906539917,-0.1489999890327453,0.22806216776371,-0.1286656707525253,-0.0200189258903265
1.962256591796875,-0.8995999693870544,0.2505999803543091,-0.3734999895095825,0.12477358430624,-0.2389006614685058,0.0836885347962379
1.982108154296875,-0.4515999853610992,0.0340999998152256,0.2460999935865402,0.0656592845916748,-0.3484549820423126,0.0747699066996574
2.00196142578125,-0.5234000086784363,0.0246999990195035,0.761900007724762,0.1993864178657531,-0.3148050308227539,0.0261101257055997
2.021814453125,-0.6740999817848206,0.0013999999500811,0.4931999742984772,0.4209210574626922,-0.2193878889083862,0.0192509815096855
2.04166748046875,-0.9731999635696412,0.1037999987602233,-0.611299991607666,0.4775046408176422,-0.212441474199295,0.0495673492550849
2.061520751953125,-0.7628999948501587,0.0475999973714351,-1.181299924850464,0.3126757442951202,-0.278798907995224,0.0636521577835083
2.081372314453125,-0.3307999968528747,-0.1552999913692474,-0.5274999737739563,0.1308124214410781,-0.346709668636322,0.0211184844374656
2.101223876953125,-0.2714000046253204,-0.1673000007867813,0.3971999883651733,0.1398532390594482,-0.4085815846920013,-0.0297578629106283
2.121076904296875,-0.6119999885559082,-0.0037000000011175,0.6943999528884888,0.2665815949440002,-0.3723834455013275,-0.0706683844327926
2.140929931640625,-1.0996999740600586,0.1666999906301498,0.5016999840736389,0.4409574270248413,-0.2631083726882934,0.010105456225574
2.160781494140625,-0.8179000020027161,0.0489999987185001,-0.4702999889850616,0.4957433044910431,-0.2872113883495331,0.0833918303251266
2.180634765625,-0.8202999830245972,0.1455999910831451,-1.270699977874756,0.3480012118816376,-0.3189065456390381,0.0639663189649581
2.200488037109375,-1.0128999948501587,0.210099995136261,-1.051699995994568,0.1617920249700546,-0.4143062531948089,0.0494800843298435
2.220341064453125,-1.0935999155044556,0.2689000070095062,-0.611799955368042,0.0936718210577964,-0.4336619675159454,0.0685565322637558
2.240192626953125,-1.0414999723434448,0.231699988245964,-0.2745999991893768,0.1845162063837051,-0.3516663908958435,0.0603534840047359
2.2600458984375,-1.296899914741516,0.4327999949455261,-0.5760999917984009,0.3026051819324493,-0.2704213261604309,0.0327249243855476
2.27989892578125,-1.7798999547958374,0.7005000114440918,-1.1121000051498413,0.293721467256546,-0.2898817360401153,0.0588350482285022
2.29975048828125,-1.7577999830245972,0.7726999521255493,-1.343999981880188,0.1550550460815429,-0.3430095613002777,0.1045277714729309
2.319603515625,-1.6013000011444092,0.7220999598503113,-0.772599995136261,0.0513999462127685,-0.3347541391849518,0.1112123802304267
2.339456787109375,-1.58079993724823,0.6996999979019165,-0.0520999990403652,0.0905127748847007,-0.3634299039840698,0.1132195070385932
2.359308349609375,-1.31059992313385,0.6898999810218811,0.1225999966263771,0.2114117294549942,-0.3477568626403808,0.1279675364494323
2.379161376953125,-0.7940999865531921,0.7565999627113342,0.0430999994277954,0.3832568526268005,-0.3164805471897125,0.1112996488809585
2.399014404296875,-0.5065000057220459,0.861299991607666,-0.3840000033378601,0.5058662295341492,-0.2807362079620361,0.0624478794634342
2.41886767578125,-0.5716999769210815,1.1890000104904177,-1.0643999576568604,0.4889190793037414,-0.2942799627780914,0.0254294462502002
2.43871923828125,-0.4696999788284302,1.2448999881744385,-1.077899932861328,0.3433935344219208,-0.2746101021766662,0.0306828878819942
2.458572265625,0.2324000000953674,0.9050999879837036,0.2402999997138977,0.271189272403717,-0.270159512758255,-0.0170518662780523
2.47842529296875,0.6442999839782715,0.9314000010490416,0.9542999863624572,0.4038517475128174,-0.2379407286643982,-0.1321912407875061
2.49827685546875,0.0224999990314245,1.326300024986267,0.2980999946594238,0.4632278382778168,-0.0854862257838249,-0.1835388243198394
2.518130126953125,-0.7048999667167664,1.3047999143600464,0.120399996638298,0.2502278685569763,0.0627794936299324,-0.1097113937139511
2.53798486328125,-0.8849999904632568,0.5722999572753906,1.1155999898910522,-0.0371929667890071,0.0649611577391624,0.0048869219608604
2.557836181640625,-0.4961999952793121,-0.4931999742984772,2.192199945449829,-0.1779712289571762,-0.0236143041402101,0.0487121380865573
2.577687744140625,-0.1174999997019767,-1.4049999713897705,2.9998998641967773,-0.0763930603861808,-0.0833918303251266,-0.0087266461923718
2.597541015625,0.0692999958992004,-1.7544000148773191,2.4926998615264893,0.2161241173744201,-0.1331686228513717,-0.0932005792856216
2.617394287109375,0.4902999997138977,-1.8493999242782595,1.1200000047683716,0.4232074320316314,-0.1053655296564102,-0.1695761829614639
2.63724560546875,0.6383999586105347,-1.852099895477295,-0.5959999561309814,0.4702789783477783,-0.0942826867103576,-0.2823069989681244
2.6570986328125,0.5439000129699707,-1.5490999221801758,-1.9049999713897705,0.333375334739685,-0.1076868176460266,-0.3427128493785858
2.6769521484375,0.3156999945640564,-1.2228000164031982,-2.187000036239624,0.0877202451229095,-0.154339462518692,-0.3304257392883301
2.696803466796875,0.4018999934196472,-1.0113999843597412,-1.4336999654769895,-0.0476125814020633,-0.1592263877391815,-0.2427752912044525
2.71665673828125,0.6840999722480774,-0.9335999488830566,-0.6837999820709229,0.0014486232539638,-0.0874409973621368,-0.1055400595068931
2.736509765625,1.1898999214172363,-0.9321999549865724,-0.6746999621391296,0.1269552558660507,-0.0126536367461085,-0.0216944422572851
2.756361572265625,0.9052000045776368,-0.6186000108718872,-1.3300999402999878,0.1021890267729759,0.114563412964344,0.0602487660944461
2.776214599609375,0.5846999883651733,-0.4869000017642975,-1.115399956703186,-0.1407957077026367,0.1266410946846008,0.1776221543550491
2.796067626953125,0.4700999855995178,-0.7547999620437622,0.0066999997943639,-0.376624584197998,-0.0034033919218927,0.263649433851242
2.815920654296875,0.7270999550819397,-0.9521999955177308,1.243499994277954,-0.409960389137268,-0.1259778589010238,0.3065321743488312
2.8357724609375,0.9687999486923218,-1.0641000270843506,2.0167999267578125,-0.2114989906549453,-0.10297442227602,0.2539454102516174
2.85562548828125,0.856499969959259,-0.8071999549865723,1.6129000186920166,0.0355698093771934,-0.0348716787993907,0.1722116321325302
2.875478515625,0.6948999762535095,-0.5045999884605408,0.6829000115394592,0.1265014708042144,-0.0260228589177131,0.0699004381895065
2.895330078125,0.6129999756813049,-0.2673999965190887,-0.140299990773201,0.1173035800457,-0.0546288043260574,-0.0268780700862407
2.91518310546875,0.5645999908447266,-0.0197000000625848,-0.3364000022411346,0.1098859310150146,-0.006998770404607,-0.1040216237306594
2.935036376953125,0.4923999905586242,0.2087000012397766,-0.4351999759674072,0.1478642970323562,0.0869872123003006,-0.1172337681055069
2.954887939453125,0.4178999960422516,0.4007000029087066,-0.9228999614715576,0.1262571215629577,0.1599419713020324,-0.0955567732453346
2.974740966796875,0.2361999899148941,0.5370999574661255,-1.1771999597549438,-0.0006108652451075,0.2048143893480301,-0.0381354428827762
2.994593994140625,0.2918999791145324,0.4204999804496765,-0.6688999533653259,-0.1483529806137085,0.2105390727519989,0.0465653836727142
3.01444580078125,0.5267999768257141,0.250900000333786,0.060599997639656,-0.2040115296840667,0.1294161677360534,0.0827460587024688
3.034298828125,0.6168000102043152,0.179199993610382,0.41279998421669,-0.1464505791664123,0.0833220183849334,0.0950855389237403
3.05415185546875,0.4722999930381775,0.1074999943375587,0.1724999994039535,-0.0380307249724864,0.137619212269783,0.1486671417951584
3.07400341796875,0.6162999868392944,-0.0806000009179115,-0.2240999937057495,6.981316983e-05,0.1788787990808487,0.1851445287466049
3.093856689453125,0.7540000081062317,-0.1380999982357025,-0.5388999581336975,-0.0480663664638996,0.1142143458127975,0.1715484112501144
3.113709716796875,1.1756999492645264,-0.1973000019788742,-0.6518999934196472,-0.1412494927644729,0.0202981792390346,0.1060811132192611
3.13356298828125,1.1065999269485474,0.0139999995008111,-0.5184000134468079,-0.1504997462034225,0.0543320998549461,0.0378212854266166
3.153414306640625,0.8535999655723572,0.1972000002861023,-0.5816999673843384,-0.1222428604960441,0.0940557941794395,0.0243822503834962
3.173265869140625,0.765500009059906,0.3653999865055084,-0.946299970149994,-0.1520705372095108,0.1375842988491058,0.054925512522459
3.193119140625,0.9662999510765076,0.3227999806404114,-0.7938999533653259,-0.2427752912044525,0.1414065808057785,0.0682423710823059
3.21297216796875,1.2554999589920044,0.2685999870300293,0.0061999997124075,-0.3092025220394134,0.0956265926361084,0.0076969019137322
3.232825439453125,0.9620999693870544,0.4271000027656555,0.4012999832630157,-0.2590243220329284,0.0444360822439193,-0.0454832799732685
3.2526767578125,0.7437999844551086,0.5498999953269958,0.1428999900817871,-0.1679181307554245,0.0714363232254982,-0.0288677457720041
3.2725302734375,0.7738999724388123,0.5194000005722046,-0.3522000014781952,-0.136519655585289,0.1022239327430725,-0.0127932634204626
3.29238330078125,0.9059000015258788,0.5029999613761902,-0.3736999928951263,-0.1456826329231262,0.1143888756632804,-0.0089186327531933
3.312236328125,0.8238999843597412,0.4977999925613403,-0.2096000015735626,-0.1193281635642051,0.050771627575159,-0.0157254170626401
3.332087890625,0.7705999612808228,0.6152999997138977,-0.5626999735832214,-0.0794822946190834,0.0059515726752579,-0.0310843139886856
3.351941162109375,0.7206000089645386,0.7940999865531921,-0.9510999917984008,-0.1017352417111396,0.0980525985360145,-0.0111526539549231
3.371792724609375,0.7439000010490417,0.8097999691963196,-0.8118999600410461,-0.1264665573835373,0.1626123189926147,0.000663225131575
3.391647216796875,0.6990999579429626,0.8197999596595764,-0.5178999900817871,-0.1354549974203109,0.193557009100914,0.0260228589177131
3.411498779296875,0.5791999697685242,0.8116999864578247,-0.0282999984920024,-0.1117185279726982,0.1633802652359008,0.0512428656220436
3.43135205078125,0.5598999857902527,0.917099952697754,0.2083999961614608,-0.0482059940695762,0.1172512173652648,0.0881565809249877
3.45120361328125,0.9018999934196472,0.912999987602234,0.1173999980092048,0.0195127818733453,0.1554564833641052,0.1033060401678085
3.471056640625,1.180400013923645,1.0339999198913574,-0.1636999994516372,0.0486772321164608,0.2275909334421157,0.0742986649274826
3.49090966796875,0.944499969482422,1.257499933242798,-0.5205999612808228,-0.0328470952808856,0.3211929500102997,0.0444884411990642
3.510761474609375,0.590399980545044,1.1618000268936155,0.4298999905586242,-0.1755975782871246,0.3938684463500976,0.0646120905876159
3.530614501953125,0.1986999958753585,1.0519999265670776,1.0645999908447266,-0.2134537696838379,0.30072021484375,0.0865159705281257
3.550467529296875,-0.0537999980151653,0.8215000033378601,1.1373000144958496,-0.2614328563213348,0.2835461795330047,0.1161516606807708
3.570320556640625,-0.193800002336502,0.2660999894142151,1.1863999366760254,-0.3515616655349731,0.3218212723731994,0.1275835633277893
3.59017236328125,-0.0626999959349632,-0.4783999919891357,1.610700011253357,-0.4279198348522186,0.26947882771492,0.0751887857913971
3.610025390625,0.1228000000119209,-0.9041000008583068,1.96999990940094,-0.3892782330513,0.1188918277621269,-0.0343306250870227
3.62987841796875,0.0652999952435493,-0.9720999598503112,2.0374999046325684,-0.2047096639871597,0.0029670596122741,-0.1063429117202758
3.64972998046875,0.2673999965190887,-1.0620999336242676,1.0404000282287598,0.0270351506769657,-0.0570373609662056,-0.113324224948883
3.6695830078125,0.851099967956543,-1.1440999507904053,0.149399995803833,0.1622458100318908,0.0423416867852211,-0.1734508275985717
3.6894365234375,0.8001999855041504,-1.1121000051498413,-0.5242999792098999,0.2183057814836502,0.1367290914058685,-0.2782752811908722
3.70928955078125,-0.1661999970674514,-0.843999981880188,-0.967199981212616,0.1818633079528808,0.2321636974811554,-0.3021863102912903
3.72914111328125,-1.3087999820709229,-0.6669999957084656,-1.166700005531311,0.0140673536807298,0.173241376876831,-0.1500983089208603
3.748992431640625,-1.2768999338150024,-0.9511999487876892,-0.536799967288971,-0.2254790812730789,0.0141371665522456,0.044139377772808
3.768845703125,-0.5042999982833862,-1.5470999479293823,0.4738999903202057,-0.3001268208026886,-0.1136907488107681,0.1244419738650322
3.788698974609375,0.4251999855041504,-1.9235999584198,0.9868999719619752,-0.1924050897359848,-0.0886452719569206,0.0337546691298484
3.808552001953125,0.4641999900341034,-1.8371999263763428,0.4888999760150909,-0.0796917304396629,-0.0037175512406975,-0.1261349469423294
3.828405029296875,0.3640999794006347,-1.562999963760376,0.1376999914646148,-0.1106538772583007,0.0588175952434539,-0.3294832408428192
3.8482568359375,-0.1401000022888183,-1.1240999698638916,0.4220999777317047,-0.1873960047960281,0.0513475872576236,-0.5229181051254272
3.86810986328125,-0.6992999911308289,-0.6297999620437622,1.1026999950408936,-0.1314581930637359,-0.0044854963198304,-0.6296100616455078
3.88796142578125,-1.2405999898910522,-0.0557999983429908,0.8752999901771545,0.0446804277598857,-0.0315031930804252,-0.6136752367019653
3.907814453125,-1.2559999227523804,0.4175999760627746,0.1220999956130981,0.1462760418653488,-0.0600916855037212,-0.5326395630836487
3.927667724609375,-1.138700008392334,0.6958999633789062,-0.7809999585151672,0.0879471376538276,-0.1295208781957626,-0.4381649196147918
3.947520751953125,-0.7547999620437622,0.776199996471405,-0.7767999768257141,-0.0378561913967132,-0.1625774204730987,-0.3562042415142059
3.967373779296875,-0.4810999929904938,0.5834000110626221,-0.1841999888420105,-0.0798139050602912,-0.1577952206134796,-0.3117507100105285
3.987225341796875,-0.5530999898910522,0.4757999777793884,0.31700000166893,-0.0145560456439852,-0.0921533852815628,-0.2903180718421936
4.00707861328125,-0.9285999536514282,0.3853999972343445,0.7457999587059021,0.108227863907814,-0.0306130740791559,-0.2181487083435058
4.026931640625,-1.1510999202728271,0.1247999966144561,0.557200014591217,0.1638515144586563,-0.0985063835978508,-0.1292067170143127
4.046783203125,-0.901799976825714,-0.1273999959230423,0.1266999989748001,0.1315803676843643,-0.1733111888170242,-0.0821177437901496
4.066634765625,-0.6890999674797058,-0.3939999938011169,-0.0618999972939491,0.0531976372003555,-0.2334901392459869,-0.0787841603159904
4.086489501953125,-0.5952000021934509,-0.4993999898433685,-0.0219999998807907,0.0113446405157446,-0.2840348780155182,-0.1154709830880165
4.106341064453125,-0.4879999756813049,-0.5182999968528748,-0.0249999985098838,0.056025069206953,-0.2629338502883911,-0.1417207419872284
4.126194091796875,-0.4336999952793121,-0.4763999879360199,-0.2694000005722046,0.1542522013187408,-0.2346595227718353,-0.1814444214105606
4.146047119140625,-0.665399968624115,-0.1283999979496002,-1.074299931526184,0.1949881762266159,-0.2391624599695205,-0.2183581441640854
4.165900390625,-0.8064999580383301,0.2708999812602997,-1.846199989318848,0.0784874558448791,-0.1694365590810775,-0.1978330761194229
4.185751953125,-0.642300009727478,0.3962000012397766,-1.792699933052063,-0.1030093356966972,-0.1386315077543258,-0.1945693045854568
4.205603515625,-0.7669000029563904,0.5929999947547913,-1.0174000263214111,-0.2519033849239349,-0.1159945800900459,-0.1812000870704651
4.22545654296875,-0.996399998664856,0.7573999762535095,0.1683000028133392,-0.2805791199207306,-0.1550026834011078,-0.1430820971727371
4.245309814453125,-1.0791000127792358,0.808899998664856,1.0871000289916992,-0.1181587874889373,-0.2025454640388488,-0.074263758957386
4.265161376953125,-0.7638999819755554,0.8008999824523926,0.6548999547958374,0.1123293936252594,-0.2256536185741424,-0.0083252200856804
4.2850146484375,-0.4088999927043915,0.7013999819755554,-0.2400999963283538,0.2017949670553207,-0.1674817949533462,-0.0313112065196037
4.30486767578125,-0.7181999683380127,0.8603000044822693,-0.8137999773025513,0.1147903054952621,-0.1765749603509903,-0.0531801804900169
4.324720703125,-0.9584999680519104,0.9072999954223632,-0.4916999936103821,-0.0139277270063757,-0.2442064732313156,-0.0445931628346443
4.344573974609375,-0.9369999766349792,0.859499990940094,0.241699993610382,-0.0242600757628679,-0.2760761678218841,-0.0038397242315113
4.364425537109375,-0.7576999664306641,0.676099956035614,0.8271999955177307,0.0878075137734413,-0.2471909821033477,0.0309970472007989
4.384278564453125,-0.4583999812602997,0.4528999924659729,1.0687999725341797,0.2549577057361603,-0.2299296706914901,0.0009599310578778
4.404131591796875,-0.3791999816894531,0.3959999978542328,0.7646999955177307,0.3691371381282806,-0.2350958436727523,-0.0706160217523574
4.42398486328125,-0.4913999736309051,0.3779000043869018,0.4013999998569488,0.3919660449028015,-0.2932676672935486,-0.1433264315128326
4.44383642578125,-0.5489999651908875,0.3560999929904938,0.0992999970912933,0.4115137159824371,-0.3328168392181396,-0.2019695043563842
4.463689453125,-0.1868999898433685,0.4095000028610229,-0.0826999992132186,0.4625122547149658,-0.2755874991416931,-0.2608743607997894
4.483541015625,0.0139999995008111,0.5324999690055847,-0.2006999999284744,0.5085016489028931,-0.1366592794656753,-0.3574608862400055
4.50339404296875,-0.4379999935626983,0.8044999837875366,-0.6960999965667725,0.4345869719982147,-0.0137706473469734,-0.3990695178508758
4.523247314453125,-1.0404000282287598,0.903599977493286,-0.814300000667572,0.150342658162117,0.066252700984478,-0.3038443624973297
4.543098876953125,-1.1460999250411987,0.4152999818325043,-0.1035999953746795,-0.2356543540954589,0.096220001578331,-0.1643227487802505
4.562951904296875,-0.7979999780654907,-0.4755999743938446,1.9260998964309688,-0.4539077877998352,0.1436405926942825,-0.0572118908166885
4.582804931640625,-0.2258999943733215,-1.1311999559402466,3.89769983291626,-0.2631607353687286,0.1715484112501144,-0.0751538798213005
4.60265673828125,-0.3911999762058258,-1.3558999300003052,4.345399856567383,0.1814967840909958,0.0566882938146591,-0.1787391752004623
4.622509765625,-1.0120999813079834,-0.8841999769210815,2.094599962234497,0.5510178804397583,-0.1137431040406227,-0.2299994826316833
4.64236279296875,-1.205899953842163,-0.517799973487854,-0.0947000011801719,0.6224891543388367,-0.0730245783925056,-0.1636420637369156
4.66221435546875,-1.044600009918213,-0.5363999605178833,-1.011299967765808,0.5785592198371887,-0.0429525524377822,-0.0641757547855377
4.682067626953125,-0.7493000030517578,-0.5866000056266785,-1.3420000076293943,0.521312415599823,-0.0868824869394302,0.0392350032925605
4.701920654296875,-0.3533999919891357,-0.5976999998092651,-1.6280999183654783,0.5068610906600952,-0.1399230509996414,0.1596801728010177
4.72177392578125,0.0608999989926815,-0.4202999770641327,-2.3265998363494877,0.4670152068138122,-0.0812101662158966,0.3031287789344787
4.741625244140625,0.4416999816894531,-0.3540999889373779,-2.851099967956543,0.316253662109375,0.0983842089772224,0.4523020684719085
4.761478759765625,0.6908000111579895,-0.497899979352951,-2.8885998725891118,0.0220086015760898,0.2202954590320587,0.5642998814582825
4.781331787109375,0.7724999785423279,-0.7290999889373779,-1.6793999671936035,-0.3276332020759582,0.2702642381191253,0.6413212418556213
4.801183349609375,0.6886000037193298,-0.979099988937378,0.2703000009059906,-0.4783947467803955,0.179035872220993,0.6679025888442993
4.821036376953125,0.5676999688148499,-0.9768999814987184,1.46999990940094,-0.4351454973220825,0.2339439392089843,0.6786713004112244
4.8408896484375,0.524899959564209,-1.000599980354309,2.2132999897003174,-0.2948384582996368,0.2713812589645386,0.6341304779052734
4.8607412109375,0.5327999591827393,-0.9592999815940856,2.2149999141693115,-0.1599419713020324,0.1386140435934066,0.5424832105636597
4.88059423828125,0.6245999932289124,-0.7935000061988831,1.5719999074935913,-0.0385717749595642,-0.0722740814089775,0.4134510457515716
4.900447265625,0.8463000059127808,-0.5791999697685242,0.6062999963760376,0.0845961049199104,-0.1184729486703872,0.3228684663772583
4.92030029296875,1.22979998588562,-0.3951999843120575,-0.5539000034332275,0.1586155146360397,-0.0242600757628679,0.2438225001096725
4.940152099609375,1.5065999031066897,-0.2836999893188476,-1.275399923324585,0.1189267337322235,0.0800058916211128,0.1503775715827942
4.960005126953125,1.309399962425232,-0.0577999986708164,-1.569000005722046,0.0276634693145751,0.1014385372400283,0.0970403030514717
4.979858154296875,1.061900019645691,0.1639000028371811,-1.674899935722351,-0.0936718210577964,0.1300968378782272,0.1193979755043983
4.999709716796875,0.8267999887466431,0.1807999908924102,-1.2134000062942505,-0.2252172827720642,0.1747947186231613,0.1955117881298065
5.01956298828125,0.8866999745368958,0.0047999997623264,-0.3422999978065491,-0.3130247890949249,0.1579872071743011,0.2938436269760132
5.03941455078125,1.1308000087738037,-0.2830999791622162,0.3246999979019165,-0.3417005538940429,0.1073377504944801,0.3328517377376556
5.05926904296875,1.3430999517440796,-0.3989999890327453,0.6855999827384949,-0.2968979477882385,0.0694990083575248,0.324962854385376
5.07912060546875,1.2947999238967896,-0.4438999891281128,0.687999963760376,-0.2206619828939438,0.0311366729438304,0.3153984546661377
5.098973876953125,1.6330000162124634,-0.4624999761581421,0.5012999773025513,-0.1730668544769287,0.0344178937375545,0.276372879743576
5.118826904296875,1.7888000011444092,-0.3617999851703644,0.4659999907016754,-0.1348441392183303,0.0387986674904823,0.1492780148983001
5.138678466796875,1.367900013923645,-0.0521999970078468,0.1595000028610229,-0.0995710343122482,0.0264417380094528,0.0421846061944961
5.158531494140625,1.032599925994873,0.2701999843120575,-0.1044999957084655,-0.0929387807846069,0.0362155809998512,-0.0256737936288118
5.178385009765625,0.7538999915122986,0.5618000030517578,-0.4658999741077423,-0.1000946313142776,0.0408756099641323,-0.0594284608960151
5.198236328125,0.7631999850273132,0.7757999897003174,-0.6708999872207642,-0.1343729048967361,0.0806516632437706,-0.0782256573438644
5.21808935546875,0.8105999827384949,0.9465999603271484,-0.4276999831199646,-0.1528559327125549,0.1309695094823837,-0.1082627698779106
5.23794091796875,0.8104999661445618,1.0321999788284302,0.0493999980390071,-0.0924500897526741,0.2072578519582748,-0.1381777226924896
5.2577939453125,0.5322999954223633,1.1363999843597412,0.2669999897480011,0.0361632220447063,0.2060710191726684,-0.1568003743886947
5.2776474609375,0.2556000053882599,1.3842999935150146,-0.2198999971151352,0.1032362282276153,0.2218837141990661,-0.088051863014698
5.29750048828125,0.4000999927520752,1.3054999113082886,-0.2592000067234039,0.0907571241259574,0.2094395160675048,-0.0355698093771934
5.317353515625,0.5824999809265137,1.25,-0.2511000037193298,0.0930784121155738,0.1869596689939499,0.0206472445279359
5.337205078125,0.9346999526023864,1.0460000038146973,-0.1146999970078468,0.1353153735399246,0.2394940853118896,0.0434063374996185
5.357058349609375,0.8722999691963196,0.9127999544143676,0.0843999981880188,0.1741140484809875,0.2674717009067535,0.0588350482285022
5.376911376953125,0.8428999781608582,0.7138999700546265,-0.0067999996244907,0.1859648376703262,0.2010270208120346,0.0787841603159904
5.396762939453125,1.1527999639511108,0.6696000099182129,-0.3028999865055084,0.1807288378477096,0.1966986060142517,0.0798662677407264
5.416615966796875,1.1869999170303345,0.6164000034332275,-0.5501999855041504,0.127827912569046,0.332275778055191,0.0554142035543918
5.43646923828125,0.9332000017166138,0.6313999891281128,-0.3009999990463257,0.038606684654951,0.400221437215805,0.0441044718027114
5.456322265625,0.5550000071525574,0.5051000118255615,-0.1667999923229217,-0.1268854290246963,0.4056145250797272,0.0406836234033107
5.476173828125,0.4232999980449676,0.0939999967813491,0.5414999723434448,-0.2739294171333313,0.4293335378170013,0.0173311196267604
5.49602685546875,0.3371999859809875,-0.4574999809265136,0.7080999612808228,-0.3367089033126831,0.442947119474411,-0.0138055542483925
5.515880126953125,0.5898999571800232,-0.967799961566925,1.3212999105453491,-0.3561169803142547,0.4865978062152862,-0.141633465886116
5.535731689453125,0.5672999620437622,-1.1390999555587769,1.3555999994277954,-0.2778564095497131,0.2421993464231491,-0.2726029753684997
5.555584716796875,1.002900004386902,-0.9294999837875366,0.5900999903678894,-0.2027723491191864,0.1086467429995536,-0.3512475192546844
5.575436279296875,1.2150999307632446,-0.7902999520301819,0.044999998062849,-0.1510407924652099,0.1875356286764145,-0.4161562919616699
5.59528955078125,1.2497999668121338,-0.7468999624252319,0.1233999952673912,-0.1190489083528518,0.3211231231689453,-0.4807683825492859
5.615142578125,0.7443999648094177,-0.7856000065803528,0.7170000076293945,-0.0232303328812122,0.4067489802837372,-0.5460960865020752
5.63499560546875,-0.5834999680519104,-0.4759999811649322,0.3400999903678894,0.0258657801896333,0.2909289300441742,-0.4863534569740295
5.65484716796875,-1.2695000171661377,-0.3813000023365021,-0.1421999931335449,-0.0811927169561386,0.1547757983207702,-0.2920808494091034
5.67469873046875,-1.132099986076355,-0.7615000009536743,0.3051999807357788,-0.1989151686429977,-0.0171740390360355,-0.0870395675301551
5.6945537109375,0.1054999977350235,-1.5860999822616575,1.0627999305725098,-0.1787915229797363,-0.0359712354838848,-0.0035604715812951
5.714405029296875,0.5877999663352966,-2.091899871826172,1.5270999670028689,-0.0156381502747535,-0.0284314136952161,-0.1146855875849723
5.734258056640625,0.6484999656677246,-2.0839998722076416,1.0334999561309814,0.1497317999601364,-0.09550441801548,-0.2592337429523468
5.754111328125,0.2379999905824661,-1.6897000074386597,0.011799999512732,0.172141820192337,-0.1393121778964996,-0.4613428711891174
5.773962890625,-0.7518999576568604,-0.9511999487876892,-0.3518999814987182,0.0842121392488479,-0.120357908308506,-0.5836032032966614
5.793816162109375,-1.3945999145507812,-0.1844999939203262,-0.3199000060558319,-0.0116064399480819,-0.1541474759578704,-0.5696056485176086
5.813669189453125,-1.4063999652862549,0.2651000022888183,-0.1687999963760376,-0.084072507917881,-0.1973094642162323,-0.5140343904495239
5.833520751953125,-1.1164000034332275,0.667199969291687,0.0245999991893768,-0.1216319948434829,-0.2727774977684021,-0.4517959356307983
5.8533740234375,-0.501800000667572,0.7505999803543091,0.3704999983310699,-0.0760614499449729,-0.2494948208332061,-0.4285655915737152
5.87322705078125,-0.2576999962329864,0.7856000065803528,0.7305999994277954,0.0486423261463642,-0.2160892188549041,-0.4465773999691009
5.89307861328125,-0.6829999685287476,0.9258999824523926,0.5228999853134155,0.1758593767881393,-0.2755700349807739,-0.4287750422954559
5.912931640625,-0.8746999502182007,0.964199960231781,0.0296999998390674,0.2060186713933944,-0.3486818671226501,-0.3414387702941894
5.932784912109375,-0.9975000023841858,0.6710000038146973,-0.3446999788284302,0.1313709318637848,-0.4565955698490143,-0.247662216424942
5.952636474609375,-0.7836999893188477,0.3100999891757965,-0.0993999987840652,0.104213610291481,-0.494870662689209,-0.1761735379695892
5.972489501953125,-0.7093999981880188,0.0599999986588954,0.0061999997124075,0.1848652809858322,-0.4425107836723327,-0.1410226076841354
5.992342529296875,-0.9944999814033508,-0.0989999994635582,-0.5462999939918518,0.2284636050462722,-0.408511757850647,-0.0919264927506446
6.012194091796875,-1.1233999729156494,-0.2437999993562698,-0.9280999898910522,0.1275486648082733,-0.4110075831413269,-0.047315876930952
6.051900390625,-1.2340999841690063,-0.5134999752044678,-0.2577999830245971,-0.1147553995251655,-0.4046196937561035,0.0264417380094528
6.07175341796875,-1.0508999824523926,-0.6008999943733215,0.3743000030517578,-0.0539830327033996,-0.3607420921325683,0.0356396250426769
6.09160498046875,-1.135200023651123,-0.5616999864578247,0.1689999997615814,0.0879645943641662,-0.3685088157653808,0.0147829391062259
6.111458251953125,-1.385800004005432,-0.2240999937057495,-0.9264999628067015,0.1462760418653488,-0.3459591567516327,0.0347320511937141
6.131311279296875,-1.4279999732971191,0.0044999998062849,-1.7910000085830688,0.017086774110794,-0.304664671421051,0.0792204961180687
6.151162841796875,-0.9467999935150146,0.0790999978780746,-1.7628999948501587,-0.2160019427537918,-0.3080506026744842,0.0862367153167724
6.171015869140625,-0.8590999841690063,0.1460999995470047,-0.7234999537467957,-0.3214198350906372,-0.3556806445121765,0.0479791015386581
6.190869140625,-0.7963999509811401,0.4285999834537506,-0.17289999127388,-0.205512523651123,-0.32356658577919,0.0821526497602462
6.23057373046875,-0.3592000007629394,0.6353999972343445,-0.7524999976158142,0.0219038818031549,-0.1232027933001518,0.1182111501693725
6.250427001953125,-0.3097999989986419,0.8359999656677246,-1.0743999481201172,-0.1429773718118667,-0.1832246631383896,0.0982794910669326
6.2702802734375,-0.3579999804496765,0.958299994468689,-0.0363999977707862,-0.2997079491615295,-0.3080331683158874,0.0751538798213005
6.290131591796875,-0.4269999861717224,1.128600001335144,0.861799955368042,-0.2149023860692978,-0.3664493262767792,0.1074599251151084
6.30998486328125,0.0395999997854232,1.0190999507904053,1.423999905586243,0.0434412434697151,-0.2651678621768951,0.1156106069684028
6.329837890625,0.1706999987363815,1.049399971961975,0.7806999683380127,0.315503180027008,-0.2303485572338104,0.0743335708975792
6.349689697265625,-0.0318999998271465,1.187399983406067,-0.517799973487854,0.3425033986568451,-0.2427752912044525,0.0161966551095247
6.369542724609375,-0.2617999911308288,1.1928999423980713,-0.7250999808311462,0.1575159579515457,-0.3084520399570465,-0.0170169603079557
6.389395751953125,0.0874999985098838,0.9569999575614928,0.2500999867916107,0.0626224130392074,-0.3671300113201141,-0.0648040771484375
6.409248779296875,0.5378999710083008,0.7673999667167664,1.051699995994568,0.1821600198745727,-0.3212627470493316,-0.1857903003692627
6.4290986328125,0.3980999886989593,0.948099970817566,0.9901999831199646,0.3768863976001739,-0.1726654171943664,-0.3366565704345703
6.44895361328125,-0.4476999938488006,1.3675999641418457,0.3949999809265136,0.4132415950298309,-0.0448898673057556,-0.3658559024333954
6.468806640625,-1.1597999334335327,1.3982999324798584,-0.2069999873638153,0.1497317999601364,-0.1284911334514618,-0.2901784479618072
6.488658203125,-1.5097999572753906,0.9662999510765076,0.4737999737262726,-0.2604380249977112,-0.0805120393633842,-0.1189790964126586
6.50851123046875,-1.218400001525879,-0.1269000023603439,2.52209997177124,-0.4471184313297272,-0.0094596846029162,0.0141546204686164
6.528364501953125,-0.494299978017807,-1.1460999250411987,4.652699947357178,-0.1922829300165176,0.0272096823900938,0.1132544130086898
6.548217529296875,0.218199998140335,-1.8955999612808228,4.234699726104736,0.4172035157680511,-0.1530479192733764,0.0559203475713729
6.568069091796875,0.4815999865531921,-1.674899935722351,0.8370999693870544,0.8143531680107117,-0.1613207757472992,-0.0368962585926055
6.587920654296875,0.3489999771118164,-1.406999945640564,-1.712000012397766,0.7697076797485352,-0.0296880509704351,-0.1041088923811912
6.60777392578125,0.3534999787807464,-1.3756999969482422,-2.498499870300293,0.4905596971511841,-0.0556236431002616,-0.1363102197647094
6.627626953125,0.28779998421669,-1.2853000164031982,-2.219399929046631,0.225112572312355,-0.1106015145778656,-0.1662600636482238
6.64747998046875,-0.0885000005364418,-1.0504999160766602,-1.4434999227523804,0.1125911921262741,0.0646644458174705,-0.1268330812454223
6.66733154296875,-0.4181999862194061,-0.8740999698638916,-0.5317999720573425,0.1491209268569946,0.2540501356124878,0.0027052604127675
6.687184814453125,-0.2440999895334243,-0.8517000079154968,-0.3917999863624573,0.1873261928558349,0.3321885168552398,0.1478468477725982
6.707037841796875,-0.0350999981164932,-0.7340999841690063,-0.5342000126838684,0.0652927681803703,0.3592061996459961,0.2296329736709594
6.72689111328125,-0.0720999985933303,-0.7928000092506409,0.2741000056266784,-0.1174082979559898,0.273458182811737,0.2590592205524444
6.746742431640625,0.0204999987035989,-0.770799994468689,1.477999925613403,-0.1430471837520599,0.2236290425062179,0.2834763824939728
6.766595947265625,0.0240000002086162,-0.7146999835968018,1.8362998962402344,0.0238411966711282,0.240715816617012,0.2691472172737121
6.786448974609375,-0.1151999980211258,-0.5011999607086182,1.288100004196167,0.2210634052753448,0.2941578030586242,0.261450320482254
6.806302001953125,-0.1955999881029129,-0.2239999920129776,0.542199969291687,0.3731339275836944,0.3568500280380249,0.2476971298456192
6.826153564453125,-0.1269000023603439,-0.0221999995410442,-0.5910999774932861,0.3680201172828674,0.2962521910667419,0.2399653196334839
6.8460068359375,0.2940999865531921,0.0428999997675418,-1.0377999544143677,0.2601064145565033,0.2614328563213348,0.2174331247806549
6.86585986328125,0.259799987077713,0.0970999971032142,-1.1409999132156372,0.2210459560155868,0.2862165570259094,0.1857728511095047
6.88571142578125,0.1735999882221222,0.1676999926567077,-1.2964999675750732,0.2056870460510254,0.4205021858215332,0.2402445673942566
6.905564453125,0.1048000007867813,0.0738999992609024,-1.2960000038146973,0.1599943339824676,0.5396907329559326,0.3363249599933624
6.925417724609375,0.0955999940633773,-0.0124999992549419,-1.200899958610535,0.0585208907723426,0.5167222023010254,0.4408876299858093
6.945269287109375,0.2974999845027923,-0.151199996471405,-1.1543999910354614,-0.146310955286026,0.4086339473724365,0.5564807653427124
6.965122314453125,0.7541999816894531,-0.4420999884605407,-0.6473999619483948,-0.3308271467685699,0.3666238486766815,0.5870764255523682
6.984975341796875,1.0931999683380127,-0.7310000061988831,0.2337999939918518,-0.3585429787635803,0.4493350088596344,0.58182293176651
7.004826904296875,1.0454999208450315,-0.7893999814987183,0.7504000067710876,-0.2328967303037643,0.4818330407142639,0.5667782425880432
7.02468017578125,0.8976999521255493,-0.7712000012397766,0.4851999878883362,-0.1089783608913421,0.440748006105423,0.5297772288322449
7.04453173828125,0.8053999543190002,-0.5095999836921692,-0.2092999964952469,-0.1313883811235427,0.3615100383758545,0.4744328558444977
7.064384765625,0.6753999590873718,-0.2635999917984009,-0.4747999906539917,-0.2358637899160385,0.2994112372398376,0.3816860616207123
7.08423779296875,0.5142999887466431,0.0202999990433454,-0.3480999767780304,-0.2908940315246582,0.3197617828845978,0.3339861929416656
7.104091064453125,0.4890999794006347,0.1766999959945678,0.0189999993890523,-0.246911734342575,0.3569896519184112,0.3255737125873565
7.123942626953125,0.6184999942779541,0.3450999855995178,-0.0991999953985214,-0.1451415866613388,0.3673219978809356,0.3001268208026886
7.143795654296875,0.5464000105857849,0.6819999814033508,-0.5214999914169312,-0.131789818406105,0.4096287786960602,0.2883982062339782
7.163648681640625,0.541700005531311,0.8398000001907349,-0.4612999856472015,-0.1892111450433731,0.4431565403938293,0.3156428039073944
7.183500244140625,0.7953999638557434,0.9186999797821044,0.0160999987274408,-0.2145009636878967,0.4101872742176056,0.3224495649337768
7.203353515625,0.7979999780654907,1.0407999753952026,0.2170999944210052,-0.1635199040174484,0.3089407384395599,0.3377561271190643
7.22320654296875,0.7619999647140503,1.2026000022888184,0.0590000003576278,-0.1079486161470413,0.2786592543125152,0.4085292220115661
7.24305810546875,1.0677000284194946,1.0986000299453735,-0.0744999945163726,-0.0887848958373069,0.2737199962139129,0.485445886850357
7.2629111328125,1.5614999532699585,0.8427000045776367,0.0289999991655349,-0.0566533878445625,0.2773851752281189,0.4986056685447693
7.2827646484375,1.8392999172210691,0.5325999855995178,0.1155999973416328,-0.0049741882830858,0.1906772255897522,0.4632976353168487
7.302615966796875,1.8594999313354488,0.4293999969959259,-0.4217000007629394,0.0272445902228355,0.1048244759440422,0.4023332893848419
7.32246923828125,1.5067999362945557,0.4977999925613403,-0.5845999717712402,-0.0397586002945899,0.0963770821690559,0.4168369770050049
7.342322265625,1.4356999397277832,0.4013999998569488,-0.1650999933481216,-0.1367116421461105,-0.0585208907723426,0.4381299912929535
7.362175537109375,1.747399926185608,0.2730999886989593,0.0872000008821487,-0.2104343473911285,-0.1009149402379989,0.4163308441638946
7.382027099609375,1.6586999893188477,0.1699000000953674,0.4985999763011932,-0.2728124260902405,0.0438950322568416,0.3177895545959472
7.401880126953125,0.7840999960899353,-0.0227999985218048,1.0551999807357788,-0.2619564533233642,0.0919963046908378,0.2379232794046402
7.421733154296875,0.2577999830245971,-0.2239999920129776,0.6216999888420105,-0.2709449231624603,0.0667588412761688,0.2016902416944503
7.4415849609375,-0.289000004529953,-0.4427999854087829,0.2069999873638153,-0.3718423843383789,0.1334129720926284,0.1502902954816818
7.46143798828125,-0.6721999645233154,-0.6821999549865723,1.000599980354309,-0.4713610708713531,0.0317998975515365,0.1382126212120056
7.481291015625,0.1242999956011772,-0.9817000031471252,1.4620999097824097,-0.3426430523395538,-0.131126582622528,0.1249830275774002
7.501142578125,1.138100028038025,-1.1857999563217163,1.1094999313354492,-0.1162912845611572,-0.0957662165164947,-0.0332659743726253
7.520995849609375,0.6996999979019165,-0.7816999554634094,0.5989999771118164,0.1158025935292244,-0.0499862283468246,-0.2066644430160522
7.540848876953125,-0.1676999926567077,-0.2316000014543533,-0.5593000054359436,0.2245366126298904,0.0295309703797101,-0.1893333196640014
7.560701904296875,-0.5511999726295471,0.0731999948620796,-1.3650999069213867,0.0879471376538276,0.0665319487452507,-0.0628143996000289
7.580553466796875,-0.7416999936103821,0.0190999992191791,-1.396899938583374,-0.1821949183940887,-0.0160395763814449,0.0739845037460327
7.60040673828125,-0.4185999929904938,-0.4583999812602997,0.1667999923229217,-0.4015129804611206,-0.0355523563921451,0.1810604631900787
7.62025830078125,0.0493999980390071,-1.0440999269485474,1.61489999294281,-0.2954144179821014,-0.0655196607112884,0.2014982551336288
7.64010986328125,-0.0285000000149011,-1.0501999855041504,1.3945999145507812,-0.0597600750625133,0.0214675497263669,0.1407084465026855
7.65996435546875,-0.2719999849796295,-0.96069997549057,0.4578999876976013,0.0406138114631176,0.0980525985360145,0.0960105583071708
7.679817626953125,-0.2921999990940094,-0.9378999471664428,-0.2840999960899353,-0.0390255637466907,0.0470191687345504,0.0432318039238452
7.699669189453125,-0.3759999871253967,-0.9102999567985536,-0.2481999993324279,-0.1775872558355331,-0.0128805302083492,-0.0249233022332191
7.719522216796875,-0.7494999766349792,-0.8276999592781067,0.5609999895095825,-0.1644449234008789,0.1170417815446853,-0.0672998949885368
7.739375244140625,-1.0469999313354492,-0.7274999618530273,1.0094000101089478,-0.0635474398732185,0.1862091720104217,-0.0766374096274375
7.759226806640625,-1.517300009727478,-0.4687999784946441,0.8777999877929688,-0.0069115036167204,0.1886002719402313,-0.0412072241306304
7.779080078125,-1.704999923706055,-0.2891999781131744,0.3682999908924103,-0.0707207396626472,0.0952600687742233,0.0393048152327537
7.798933349609375,-1.2878999710083008,-0.334199994802475,0.3434999883174896,-0.1566781997680664,0.0988554507493972,0.1476024985313415
7.818786376953125,-0.7506999969482422,-0.6390999555587769,0.9106000065803528,-0.0797440931200981,0.1637817025184631,0.1551946699619293
7.838637939453125,-0.8198999762535095,-0.6049000024795532,0.6504999995231628,0.0476649403572082,0.2041511684656143,0.1680577546358108
7.8584912109375,-0.7748000025749207,-0.6331999897956848,0.312199980020523,0.0466875582933425,0.1735729873180389,0.1566433012485504
7.87834423828125,-0.8813999891281128,-0.5532999634742737,0.3267000019550323,0.0393920801579952,0.0618544667959213,0.1658411920070648
7.89819580078125,-0.459799975156784,-0.5898999571800232,0.163000002503395,0.045238934457302,0.1020319461822509,0.1835388243198394
7.918048828125,0.1048999950289726,-0.8531999588012695,0.411899983882904,0.0705636590719223,0.1714960485696792,0.147445410490036
7.937900390625,0.0472999997437,-0.7283999919891357,0.5458999872207642,0.2910161912441253,0.1890540570020675,0.0991870611906051
7.957755126953125,0.2021999955177307,-0.8192999958992004,0.5105999708175659,0.2661277949810028,0.2143787890672683,0.0042411498725414
7.977606689453125,-0.4253000020980835,-0.3849000036716461,0.2780999839305877,0.0808262005448341,0.0803375020623207,-0.0336499474942684
7.997459716796875,-0.0445999987423419,-0.3091000020503998,0.4709999859333038,-0.0808611065149307,-0.0434063374996185,-0.0596029944717884
8.01731298828125,0.5019999742507935,-0.3510999977588653,0.1006999984383583,-0.0849451720714569,0.0456927195191383,-0.108751468360424
8.03716455078125,0.1955999881029129,-0.2348999977111816,-0.0822999998927116,-0.064996063709259,0.2702467739582062,-0.2076592743396759
