seconds_elapsed,accel_x,accel_y,accel_z,gyro_x,gyro_y,gyro_z
0.199291015625,-0.5432000160217285,-0.0916000008583068,0.3373000025749206,-0.2786243557929992,0.443400889635086,0.4161912202835083
0.219145751953125,-0.5432000160217285,-0.0916000008583068,0.3373000025749206,-0.2786243557929992,0.443400889635086,0.4161912202835083
0.238997314453125,-0.5432000160217285,-0.0916000008583068,0.3373000025749206,-0.2786243557929992,0.443400889635086,0.4161912202835083
0.258850341796875,-0.0935999974608421,-0.5580999851226807,-1.0160000324249268,-0.2786243557929992,0.443400889635086,0.4161912202835083
0.278701904296875,-0.4813999831676483,-0.3705999851226806,-0.3599999845027923,-0.2786243557929992,0.443400889635086,0.4161912202835083
0.298556640625,-0.2687000036239624,-0.212799996137619,-0.2924999892711639,-0.2786243557929992,0.443400889635086,0.4161912202835083
0.318408203125,0.0233999993652105,-0.1569999903440475,-0.5357999801635742,-0.2786243557929992,0.443400889635086,0.4161912202835083
0.338261474609375,-0.1747999936342239,0.0462999977171421,-0.460999995470047,-0.2786243557929992,0.443400889635086,0.4161912202835083
0.358114501953125,-0.4066999852657318,0.1435000002384185,0.127700001001358,-0.2786243557929992,0.443400889635086,0.4161912202835083
0.377966064453125,-0.0163000002503395,0.3225999772548675,0.576200008392334,-0.2774026393890381,0.3224495649337768,0.4247433245182037
0.3978193359375,0.2840999960899353,0.3524999916553497,0.4983999729156494,-0.2201907336711883,0.3036523759365082,0.4128227233886719
0.41767236328125,0.5630999803543091,0.5310999751091003,0.1666999906301498,-0.1944471299648285,0.3916344344615936,0.364581823348999
0.43752392578125,0.1053999960422515,0.5740999579429626,0.7351999878883362,-0.1545838117599487,0.4288274049758911,0.3411595225334167
0.457376953125,0.0592000000178813,0.6261999607086182,0.5734999775886536,-0.0539655797183513,0.2977880835533142,0.3600439727306366
0.477230224609375,0.2584999799728393,0.6412999629974365,-0.0916999951004982,-0.0129503430798649,0.3105813264846802,0.3687706291675567
0.497083251953125,0.1070999950170517,0.6667999625205994,0.2969000041484833,0.0088837258517742,0.3230604529380798,0.3788237273693084
0.516934814453125,0.1691000014543533,0.4043000042438507,0.3150999844074249,0.0899542719125747,0.2087413817644119,0.4085292220115661
0.536787841796875,0.7282999753952026,0.23259998857975,-0.2536999881267547,0.1230631619691848,0.2511005103588104,0.3849672675132751
0.55664111328125,0.5949999690055847,0.0346999987959861,-0.8622999787330627,0.0778416842222213,0.3050137460231781,0.3212802112102508
0.57649267578125,0.0807999968528747,0.124499998986721,-1.118299961090088,-0.0832173004746437,0.2692344784736633,0.3170041441917419
0.59634423828125,0.0734999999403953,-0.0768999978899955,-0.8438999652862549,-0.2820626497268677,0.1842718571424484,0.3423637747764587
0.61619873046875,0.4152999818325043,-0.3050999939441681,-0.088199995458126,-0.3308795094490051,0.1774476170539856,0.3404613733291626
0.63605029296875,0.309499979019165,-0.4601999819278717,0.7432000041007996,-0.1873436421155929,0.1474977731704712,0.2864085435867309
0.655902099609375,0.3087999820709228,-0.1057999953627586,0.5069000124931335,-0.0104894284158945,0.1830675899982452,0.2760238349437713
0.675756591796875,0.4517000019550323,0.0414000004529953,0.1985999941825866,0.0722042694687843,0.2678207755088806,0.2567379176616668
0.695608154296875,0.4804999828338623,0.2586999833583832,-0.1400000005960464,0.0705636590719223,0.2465102970600128,0.2192482650279998
0.715461181640625,0.2789999842643738,0.5429999828338623,-0.7366999983787537,-0.0299673024564981,0.2152863591909408,0.2003986984491348
0.73531298828125,0.0797999948263168,0.6898999810218811,-0.3779000043869018,-0.2288475632667541,0.3050137460231781,0.2243969738483429
0.755166015625,-0.1904999911785125,0.4305000007152557,0.9835999608039856,-0.3814242482185364,0.3005805909633636,0.223349779844284
0.77501904296875,-0.7275999784469604,0.1832999885082245,1.3765000104904177,-0.456019639968872,0.3240378201007843,0.2306976169347763
0.7948720703125,-0.7954999804496765,-0.2899999916553497,1.9263999462127688,-0.5659928321838379,0.4522148072719574,0.1814618855714798
0.8147255859375,-1.1656999588012695,-0.8070999979972839,3.109999895095825,-0.565696120262146,0.3978129029273987,0.0110828410834074
0.834576904296875,-1.800399899482727,-0.9193999767303468,3.813499927520752,-0.294890820980072,0.0682598277926445,-0.1116138026118278
0.85443017578125,-1.6646000146865845,-0.7439999580383301,2.023399829864502,0.0061435587704181,-0.2452536672353744,-0.0991521552205085
0.874283203125,-0.5928999781608582,-0.8737999796867371,0.2899999916553497,0.1783726513385772,-0.2065073549747467,-0.1143714264035224
0.894135009765625,-0.1004000008106231,-1.031000018119812,-0.6362999677658081,0.2642777562141418,0.0163537357002496,-0.1784250140190124
0.913988037109375,-0.4135999977588653,-1.1022999286651611,-1.0787999629974363,0.2520953416824341,0.1533795297145843,-0.2513099610805511
0.933839599609375,-1.4930999279022217,-0.9827999472618104,-0.8876000046730042,0.1249830275774002,0.1743932962417602,-0.2246413230895996
0.953692626953125,-2.764699935913086,-0.9661999940872192,-0.3549000024795532,-0.0041887899860739,0.0322362296283245,-0.0461290515959262
0.973545654296875,-2.956899881362915,-1.1883999109268188,-0.0683999955654144,-0.1627694070339203,-0.1200437471270561,0.2242399007081985
0.99339892578125,-2.4385998249053955,-1.6818000078201294,0.4785999953746795,-0.265499472618103,-0.2089857310056686,0.385979562997818
1.01325048828125,-1.6373999118804932,-2.200500011444092,0.9474999904632568,-0.2686934471130371,-0.2104168981313705,0.3907268643379211
1.033103515625,-0.9793999791145324,-2.390499830245972,1.170199990272522,-0.1733286529779434,-0.1449146866798401,0.2345024347305297
1.052955078125,-0.8511999845504761,-2.096099853515625,0.9983999729156494,-0.0519235432147979,-0.074647732079029,-0.0069813169538974
1.072808349609375,-1.3590999841690063,-1.482100009918213,0.5228999853134155,0.0176278259605169,-0.0782431066036224,-0.2236813902854919
1.092661376953125,-1.751699924468994,-0.6793999671936035,0.0744000002741813,0.0288677457720041,-0.02185152284801,-0.3205820620059967
1.112512939453125,-1.900299906730652,-0.1985999941825866,-0.0760999992489814,0.050387654453516,0.0323060452938079,-0.3197966814041137
1.132365966796875,-1.910499930381775,0.222800001502037,-0.339599996805191,0.0602313131093978,0.0357268899679183,-0.2576455175876617
1.15221923828125,-1.8940999507904053,0.5277999639511108,-0.5694000124931335,0.027227135375142,-0.0183085035532712,-0.1465203911066055
1.172072265625,-1.5240999460220337,0.7236999869346619,-0.6609999537467957,-0.0252723675221204,-0.1454731971025467,-0.0273667629808187
1.19192529296875,-1.0828999280929563,0.6387999653816223,-0.5483999848365784,-0.0501433089375495,-0.2074149250984192,0.0756600201129913
1.21177685546875,-0.4962999820709228,0.435699999332428,-0.4457999765872955,-0.0303338225930929,-0.17502161860466,0.1373923122882843
1.231630126953125,-0.0445999987423419,0.1583999991416931,-0.4684000015258789,-0.0087091932073235,-0.1599943339824676,0.0948411896824836
1.251481689453125,-0.2432999908924102,0.3361999988555908,-0.5478000044822693,-0.0231256131082773,-0.120218276977539,0.0190240889787673
1.271334716796875,-0.4870999753475189,0.3790999948978424,-0.412200003862381,-0.0531976372003555,-0.175737202167511,-0.0320791527628898
1.291187744140625,-0.6775000095367432,0.397599995136261,-0.2981999814510345,-0.025359634310007,-0.2452711164951324,-0.0647691711783409
1.311041259765625,-0.7300999760627747,0.4888999760150909,-0.4271000027656555,0.0423242338001728,-0.2238035649061203,-0.0817861258983612
1.330892578125,-0.4043000042438507,0.5083999633789062,-0.5309999585151672,0.0882089436054229,-0.2251823842525482,-0.1072330325841903
1.350745849609375,-0.0375999994575977,0.6265999674797058,-0.6800999641418457,0.0637743324041366,-0.247644767165184,-0.2031737715005874
1.370598876953125,-0.0502999983727932,0.8166999816894531,-0.5949999690055847,-0.0207170583307743,-0.2601587772369385,-0.2997079491615295
1.3904501953125,-0.3226999938488006,0.9429999589920044,0.3763999938964844,-0.0595157258212566,-0.2654471397399902,-0.3616147637367248
1.4103037109375,-0.326799988746643,0.9192000031471252,1.1390999555587769,-0.0147829391062259,-0.3877423405647278,-0.3866253197193146
1.43015673828125,-0.1457999944686889,0.8285999894142151,1.777899980545044,0.080459676682949,-0.4345695376396179,-0.4299094974994659
1.45000830078125,-0.1274999976158142,0.4664999842643738,2.560999870300293,0.312693178653717,-0.4156850576400757,-0.5085715055465698
1.469861328125,-0.1878999918699264,0.2098999917507171,2.312299966812134,0.6236934065818787,-0.4540823101997375,-0.5789257287979126
1.489714599609375,0.1823999881744384,0.3089999854564667,0.941100001335144,0.7820994853973389,-0.4578173160552978,-0.6791250705718994
1.509567626953125,-0.0654999986290931,0.6733999848365784,-0.2777999937534332,0.7035945653915405,-0.3719645738601684,-0.7692363858222961
1.529419189453125,-0.9739999771118164,0.8064000010490417,-0.4323000013828277,0.4466297626495361,-0.3055198788642883,-0.7039960026741028
1.549272216796875,-1.1575000286102295,0.2114999890327453,0.6083999872207642,0.161634936928749,-0.2998824715614319,-0.4961796402931213
1.56912548828125,-0.2291999906301498,-0.6834999918937683,1.4478999376296997,0.0123918373137712,-0.2904751598834991,-0.3725928962230682
1.58897705078125,0.4441999793052673,-1.3339999914169312,2.018699884414673,0.0181514248251914,-0.083915427327156,-0.3883531987667084
1.608830078125,0.0075999996624886,-1.5520999431610107,2.381999969482422,0.0891863256692886,0.102415919303894,-0.4368908107280731
1.62868310546875,-0.7348999977111816,-1.5159999132156372,2.063499927520752,0.102415919303894,-0.031049408018589,-0.397533655166626
1.648534912109375,-0.4156999886035919,-1.803699970245361,1.8143999576568604,0.1389805674552917,-0.3367263674736023,-0.3574783504009247
1.668387939453125,0.2575999796390533,-2.223299980163574,0.9212999939918518,0.3395712673664093,-0.4817632436752319,-0.4103268980979919
1.688240966796875,0.870199978351593,-2.265699863433838,-0.5324000120162964,0.5820673108100891,-0.3956312239170074,-0.539865255355835
1.708092529296875,0.6757000088691711,-1.821699976921081,-2.2973999977111816,0.6671870350837708,-0.3887197375297546,-0.6384589076042175
1.72794580078125,0.3841999769210815,-1.168299913406372,-3.738799810409546,0.4883256554603576,-0.4559847116470337,-0.6128548979759216
1.747798828125,0.3249000012874603,-0.5440999865531921,-4.448999881744385,0.1246863231062889,-0.3440392911434173,-0.4824090003967285
1.767650390625,0.6747999787330627,-0.4854999780654907,-3.496299982070923,-0.2596875429153442,0.0466177426278591,-0.3152937293052673
1.78750341796875,0.4967999756336212,-0.732699990272522,-1.2479000091552734,-0.4823217391967773,0.2550100684165954,-0.2049714624881744
1.8073564453125,0.2556999921798706,-0.9299999475479126,0.8417999744415283,-0.5422912240028381,0.1762433499097824,-0.1133416816592216
1.8272099609375,-0.1542999893426895,-0.9382999539375304,1.8775999546051023,-0.4624773561954498,0.0770213827490806,-0.0352556519210338
1.847061279296875,-0.4315999746322632,-0.9000999927520752,2.401700019836426,-0.3414562046527862,0.1228362694382667,0.0694990083575248
1.86691455078125,-0.29789999127388,-1.0484999418258667,2.475800037384033,-0.2025803625583648,0.093148224055767,0.1303411871194839
1.886767578125,0.1491999924182891,-1.1891000270843506,2.1689000129699707,-0.0685914382338523,-0.0751189738512039,0.0807214751839637
1.906620849609375,0.3850999772548675,-1.0608999729156494,1.423699975013733,0.1435009688138961,-0.2326872944831848,-0.05366887524724
1.926472412109375,0.3974999785423279,-0.5286999940872192,-0.2739000022411346,0.3197966814041137,-0.2109230458736419,-0.1507615447044372
1.946325439453125,0.1867000013589859,-0.0383999980986118,-1.3476999998092651,0.3480012118816376,-0.0074700093828141,-0.1933301240205764
1.966178466796875,-0.0724999979138374,0.3571999967098236,-2.1440999507904053,0.2472258806228637,0.0989252626895904,-0.1571319848299026
1.9860302734375,-0.1395999938249588,0.6319000124931335,-2.683799982070923,-0.0120427720248699,0.1469741761684417,-0.0659734457731247
2.00588330078125,-0.0395999997854232,0.6667999625205994,-1.6669999361038208,-0.3586651682853699,0.1480562835931778,0.0453785620629787
2.025736328125,0.3055000007152557,0.409199982881546,0.2020999938249588,-0.4711341857910156,0.0383274294435977,0.1371130645275116
2.045587890625,0.7603999972343445,0.3382000029087066,0.9738999605178832,-0.3420670926570892,0.0451516658067703,0.2039068192243576
2.065439453125,0.9261999726295472,0.3624999821186065,0.9728999733924866,-0.126047670841217,0.2265437394380569,0.2201209217309951
2.085294189453125,0.6223999857902527,0.3580999970436096,0.4214999973773956,-0.0546986199915409,0.2800380885601043,0.246964082121849
2.105145751953125,0.6003999710083008,0.2525999844074249,0.4450999796390533,-0.1458048075437545,0.0836361795663833,0.2550449669361114
2.124998779296875,0.6406999826431274,0.1924999952316284,0.6868000030517578,-0.1831199377775192,-0.0977558940649032,0.2514844834804535
2.14485205078125,0.9822999835014344,0.0903000012040138,0.8276999592781067,-0.0830078572034835,-0.0044156829826533,0.2267182618379593
2.16470361328125,0.9988999962806702,-0.0392999984323978,0.5157999992370605,0.0719948336482048,0.1294859796762466,0.1591565757989883
2.184556640625,0.7700999975204468,0.0285000000149011,-0.2637999951839447,0.1236914843320846,0.1619840115308761,0.090250976383686
2.204408203125,0.4152999818325043,0.1553999930620193,-0.7056999802589417,0.0841772258281707,0.1553866565227508,0.0562170557677745
2.22426123046875,0.2190999984741211,0.2789999842643738,-0.7386999726295471,0.0389382950961589,0.1481959074735641,0.0622908025979995
2.2441162109375,0.3154000043869018,0.3807999789714813,-0.9025999903678894,0.001483529806137,0.1932253986597061,0.0703018605709075
2.263967529296875,0.3992999792098999,0.5081999897956848,-0.8829999566078186,-0.0527438484132289,0.2561270594596863,0.0633903592824935
2.303672119140625,0.0480000004172325,0.9018999934196472,-0.7453999519348145,-0.0665144994854927,0.2922379374504089,0.1095892265439033
2.323525390625,-0.1666999906301498,1.1276999711990356,-0.6220999956130981,-0.0685216262936592,0.2178345471620559,0.201515719294548
2.343376953125,-9.99999974737e-05,1.1959999799728394,-0.6556999683380127,-0.0381354428827762,0.1614429503679275,0.3255562782287597
2.36322998046875,0.5776000022888184,1.140299916267395,-0.8629999756813049,0.0016580627998337,0.2379232794046402,0.4208861589431762
2.383083251953125,1.0331000089645386,0.9786999821662904,-0.8804000020027161,-0.0084124868735671,0.2952747941017151,0.4399451315402984
2.402934814453125,0.9771999716758728,1.0535999536514282,-0.7412999868392944,-0.0393920801579952,0.241832822561264,0.4304854571819305
2.4227880859375,0.9708999991416932,1.1532000303268433,-0.545799970626831,-0.0318522602319717,0.2165953665971756,0.4803495109081268
2.44264111328125,1.3573999404907229,1.162500023841858,-0.5651999711990356,0.0106290550902485,0.2728298604488373,0.5282588005065918
2.462492431640625,1.57260000705719,0.9380999803543092,-0.8554999828338623,-0.0009599310578778,0.4245164394378662,0.5234766006469727
2.482345703125,1.4124000072479248,0.7741999626159668,-1.2832000255584717,-0.2025978118181228,0.5132140517234802,0.5124984979629517
2.502198974609375,0.9746999740600586,0.3614999949932098,-1.069999933242798,-0.59917151927948,0.5502673983573914,0.4787961840629577
2.522052001953125,0.3612000048160553,-0.2443999946117401,1.0140999555587769,-0.963997721672058,0.4999670088291168,0.4290193915367126
2.541905029296875,0.3920999765396118,-0.9199999570846558,3.1686999797821045,-0.9900554418563844,0.3429048359394073,0.3717900216579437
2.561756591796875,0.8229999542236328,-1.225000023841858,3.9405999183654794,-0.726440966129303,0.2031912356615066,0.218218520283699
2.58160986328125,0.9674999713897704,-1.1660000085830688,3.887199878692627,-0.3592760264873504,0.1181587874889373,0.0294960644096136
2.601462890625,0.7257999777793884,-1.0145999193191528,2.824199914932251,-0.0167551599442958,0.0773180872201919,-0.1028522551059722
2.621314453125,0.3788999915122986,-0.8621999621391296,1.5479999780654907,0.1948660165071487,0.1090830788016319,-0.2011666446924209
2.64116748046875,-0.4253999888896942,-0.668999969959259,0.541700005531311,0.2018124163150787,0.146345853805542,-0.2065248042345047
2.661020751953125,-1.1825000047683716,-0.6728000044822693,0.5364999771118164,0.1222428604960441,0.0874759033322334,-0.1527512222528457
2.680873779296875,-1.6588999032974243,-0.7601000070571899,0.8980000019073486,0.0870919302105903,0.0139277270063757,-0.0468446351587772
2.700725341796875,-1.5374999046325684,-1.1256999969482422,1.118799924850464,0.1725781559944152,-0.045134212821722,0.0552920289337635
2.720578369140625,-1.2178999185562134,-1.3306999206542969,0.7074999809265137,0.2755700349807739,-0.0010297442786395,0.0918043181300163
2.74043017578125,-0.9805999994277954,-1.5047999620437622,0.3725000023841858,0.2883633077144623,-0.0250105690211057,0.0499338693916797
2.760283203125,-0.7735999822616577,-1.503600001335144,0.0675999969244003,0.2376614809036255,-0.1097288504242897,-0.0770911946892738
2.78013623046875,-0.748699963092804,-1.1288999319076538,-0.221900001168251,0.2190213650465011,-0.0639314129948616,-0.2100329250097274
2.7999892578125,-1.028599977493286,-0.7398999929428101,-0.4729999899864197,0.2233846932649612,0.0761138051748275,-0.3034603893756866
2.819841064453125,-1.353600025177002,-0.4097999930381775,-0.6829999685287476,0.2190213650465011,0.1051909923553466,-0.3339687585830688
2.839694091796875,-1.6308999061584473,0.0288999993354082,-0.9513999819755554,0.1242499873042106,0.0526565834879875,-0.2974739074707031
2.85954736328125,-1.742900013923645,0.2586999833583832,-0.8151999711990356,0.009861109778285,-0.094422310590744,-0.200817584991455
2.879398681640625,-1.4370999336242676,0.3310999870300293,-0.6008999943733215,-0.0170693192631006,-0.1871167421340942,-0.0558156296610832
2.899252197265625,-0.6000999808311462,0.1806000024080276,-0.5954999923706055,0.0556236431002616,-0.1879370510578155,0.0407534390687942
2.919103515625,-0.0747999995946884,0.1331999897956848,-0.9960999488830566,0.1116312593221664,-0.0694291964173317,0.0593237392604351
2.938956787109375,0.0973999947309494,-0.032600000500679,-1.2339999675750732,0.092048667371273,0.0013788101496174,0.0494102723896503
2.958809814453125,0.0280999988317489,-0.1462000012397766,-1.2862999439239502,-0.0252549145370721,-0.0352207459509372,0.0199316591024398
2.9786630859375,-0.0749999955296516,-0.2874999940395355,-0.8280999660491943,-0.1737824380397796,-0.0820828378200531,-0.0003316125657875
2.9985146484375,-0.1361999958753585,-0.4115999937057495,-0.0483999997377395,-0.2335250526666641,-0.1116312593221664,-0.0391477346420288
3.01836767578125,-0.1802999973297119,-0.4751999974250793,0.550000011920929,-0.1885304600000381,-0.1033060401678085,-0.0641233995556831
3.038220703125,-0.0350000001490116,-0.5855000019073486,1.083299994468689,-0.0328645482659339,-0.1229060888290405,-0.1182285994291305
3.058072265625,0.1299999952316284,-0.5565999746322632,0.5885999798774719,0.1302190124988556,-0.1644623726606369,-0.2230705320835113
3.077925537109375,-0.0379999987781047,-0.2721000015735626,-0.3059999942779541,0.175056517124176,-0.173241376876831,-0.3640407621860504
3.097777099609375,-0.5989999771118164,0.1717000007629394,-0.7461000084877014,0.1279675364494323,-0.187029480934143,-0.4542568325996399
3.117631591796875,-0.958899974822998,0.5852999687194824,-0.8953999876976013,0.0895353928208351,-0.2199987471103668,-0.4595975577831268
3.137484619140625,-1.2354999780654907,0.926699995994568,-1.0769000053405762,0.0513301342725753,-0.2234545052051544,-0.4141666293144226
3.15733642578125,-1.3292999267578125,1.077799916267395,-0.8393999934196472,0.0187622886151075,-0.2481160014867782,-0.3401297628879547
3.177189453125,-1.3150999546051023,1.1549999713897705,-0.7120999693870544,-0.0067893308587372,-0.2446427941322326,-0.2631258368492126
3.197041015625,-1.178399920463562,1.1571999788284302,-0.1842999905347824,-0.0382401645183563,-0.1944820433855056,-0.2156877815723419
3.216892578125,-1.418299913406372,1.1055999994277954,0.5081999897956848,-0.0250105690211057,-0.2267008125782013,-0.1566956639289856
3.236747314453125,-1.3250999450683594,0.8156999945640564,0.8976999521255493,0.0013788101496174,-0.3310191333293915,-0.0906174927949905
3.256598876953125,-0.9811999797821044,0.5989999771118164,1.2591999769210815,0.0568279214203357,-0.3852465152740478,-0.0769166573882103
3.276450439453125,-0.6416000127792358,0.3522000014781952,1.3797999620437622,0.2152863591909408,-0.3969576954841614,-0.1054004356265068
3.296304931640625,-0.2270999997854232,0.2755999863147735,1.139299988746643,0.3911980986595154,-0.3746523857116699,-0.1871167421340942
3.316156494140625,-0.0799999982118606,0.3911999762058258,0.5412999987602234,0.5116432905197144,-0.3684389889240265,-0.3114016354084015
3.336009765625,0.0585999973118305,0.740399956703186,0.0028999999631196,0.5556430220603943,-0.3023782968521118,-0.4687954485416412
3.355861328125,-0.2773999869823456,1.219099998474121,-0.4323000013828277,0.4972791969776153,-0.1631184667348861,-0.5705481171607971
3.37571435546875,-1.0789999961853027,1.639799952507019,-0.5277000069618225,0.2586927115917206,-0.0107512278482317,-0.5453281402587891
3.3955673828125,-1.5504999160766602,1.4852999448776243,0.3973999917507171,-0.094404861330986,0.0913854390382766,-0.3787364363670349
3.415419189453125,-1.321499943733215,0.599299967288971,2.2734999656677246,-0.2573313415050506,0.0978082492947578,-0.2248682230710983
3.435272216796875,-0.8693999648094177,-0.3256999850273132,3.6847000122070312,-0.1197993978857994,0.0977558940649032,-0.1609542667865753
3.45512548828125,-0.5896999835968018,-0.9998999834060668,3.734099864959717,0.2807362079620361,0.0418879017233848,-0.1727352291345596
3.474978515625,-0.2012999951839447,-1.2440999746322632,1.962999939918518,0.6717946529388428,0.0389557480812072,-0.1841845959424972
3.494830322265625,-0.0184000004082918,-1.4290000200271606,0.009800000116229,0.8473398685455322,0.0230208933353424,-0.2018473297357559
3.514683349609375,0.0064999996684491,-1.4962999820709229,-1.396799921989441,0.7850490808486938,-0.1006531342864036,-0.192422553896904
3.534536376953125,0.2348999977111816,-1.5025999546051023,-2.2289998531341557,0.6324898600578308,-0.2357939779758453,-0.1894554942846298
3.554389404296875,0.3813000023365021,-1.2071999311447144,-2.613600015640259,0.452790766954422,-0.1147379428148269,-0.161233514547348
3.5742412109375,0.0264999996870756,-0.9002999663352966,-2.346299886703491,0.2804918587207794,0.1124341115355491,-0.0703716725111007
3.59409423828125,-0.4448999762535095,-0.6917999982833862,-1.68149995803833,0.1041612476110458,0.2355147302150726,0.1287529319524765
3.613947265625,-0.3066000044345855,-0.7488999962806702,-0.8461999893188477,-0.0592713803052902,0.2382898032665252,0.3610388040542602
3.633798828125,0.524899959564209,-1.024999976158142,-0.046399999409914,-0.2003986984491348,0.2254267185926437,0.4864058196544647
3.653652099609375,0.8517000079154968,-1.1502000093460083,0.7687999606132507,-0.3040363490581512,0.2153910845518112,0.4849222898483276
3.673505126953125,0.7651999592781067,-1.237299919128418,1.730799913406372,-0.3109827637672424,0.1116138026118278,0.4310265183448791
3.693356689453125,0.6563000082969666,-1.1848000288009644,2.240299940109253,-0.1524021476507187,0.034784410148859,0.3661351799964905
3.713209716796875,0.7561999559402466,-1.0896999835968018,1.636299967765808,0.1331162601709365,-0.0667064860463142,0.2699151635169983
3.73306298828125,0.7688999772071838,-0.6800999641418457,-0.4711999893188476,0.2704387605190277,-0.0719424709677696,0.1777966916561126
3.75291455078125,0.7497000098228455,-0.313400000333786,-1.732100009918213,0.1615127623081207,0.0392175465822219,0.0886976346373558
3.772767578125,0.5126000046730042,-0.0747999995946884,-1.6881999969482422,0.0056897732429206,0.060301125049591,0.048031460493803
3.79262060546875,0.7044000029563904,0.0627999976277351,-1.34499990940094,-0.0533721670508384,0.1008451208472251,0.0480663664638996
3.81247216796875,0.6675999760627747,0.229899987578392,-1.281599998474121,-0.0705636590719223,0.2366142868995666,0.0721693634986877
3.832325439453125,0.632099986076355,0.35029998421669,-1.1598999500274658,-0.1257160604000091,0.3176848292350769,0.1131846010684967
3.852178466796875,0.6358000040054321,0.4403999745845794,-0.8364999890327454,-0.2439621239900589,0.2616074085235595,0.1774127185344696
3.872031494140625,0.8199999928474426,0.4226000010967254,-0.1516999900341034,-0.3478964865207672,0.1786868125200271,0.2365968376398086
3.891883056640625,1.0529999732971191,0.3535999953746795,0.4837999939918518,-0.3814940750598907,0.1017526984214782,0.2766346931457519
3.911736328125,1.22979998588562,0.2020999938249588,0.8316999673843384,-0.3474426865577698,0.0397586002945899,0.2941228747367859
3.931589599609375,1.4335999488830566,-0.0039999997243285,0.9472999572753906,-0.2425658553838729,0.0304559953510761,0.279217779636383
3.95144091796875,1.528999924659729,-0.0611999966204166,0.729200005531311,-0.1239183768630027,0.0182561445981264,0.2401922047138214
3.971294189453125,1.5267000198364258,-0.0297999996691942,0.1974999904632568,-0.1115963533520698,-0.0029845130629837,0.1643401980400085
3.9911474609375,1.371999979019165,0.0863000005483627,-0.1651999950408935,-0.1585631668567657,-0.0111352009698748,0.0691673979163169
4.01100048828125,1.1448999643325806,0.2414999902248382,-0.1894000023603439,-0.1755975782871246,0.0476474873721599,-0.0053756139241158
4.03085205078125,0.9639999866485596,0.3412999808788299,0.2559999823570251,-0.1386838555335998,0.1222952231764793,-0.0524820499122142
4.050705078125,0.7414999604225159,0.3956999778747558,0.4503999948501587,-0.0051836278289556,0.1245292425155639,-0.1123119369149208
4.070558349609375,0.4363999962806701,0.6916999816894531,0.1074000000953674,0.1243023499846458,0.1626995950937271,-0.1181413382291793
4.090409912109375,0.2465000003576278,0.866599977016449,-0.7827000021934509,0.1585108041763305,0.146310955286026,-0.0687136128544807
4.110262939453125,0.324099987745285,1.024999976158142,-1.267499923706055,0.0209614038467407,0.1441467404365539,-0.0192858874797821
4.130115966796875,0.4068000018596649,0.9615999460220336,-0.7736999988555908,-0.1122944802045822,0.0970926657319068,0.0328470952808856
4.149967529296875,0.5748999714851379,0.8326999545097351,0.0511999987065792,-0.0841772258281707,0.0278205480426549,0.0791506841778755
4.16982080078125,0.7364999651908875,0.7473999857902527,0.2113000005483627,0.0969181358814239,0.0310668610036373,0.1262222081422805
4.189673828125,0.7669999599456787,0.7670999765396118,-0.5932999849319458,0.2568077445030212,0.1102000921964645,0.1887224465608596
4.20952685546875,0.8449999690055847,0.7578999996185303,-1.65749990940094,0.1917767822742462,0.1398532390594482,0.2542421221733093
4.22937841796875,1.2258999347686768,0.6417999863624573,-1.559899926185608,-0.0388684831559658,0.0693419277667999,0.2588672339916229
4.249231689453125,1.5053999423980713,0.6833999752998352,-0.6301999688148499,-0.1582315564155578,0.0499687753617763,0.2325302213430404
4.269084716796875,1.420799970626831,0.755899965763092,-0.1231999993324279,-0.1401848495006561,0.1256113499403,0.2361779510974884
4.288936279296875,1.35889995098114,0.7270999550819397,-0.163000002503395,-0.2120924144983291,0.1637642383575439,0.2363699376583099
4.308789306640625,0.901699960231781,0.6324999928474426,-0.2578999996185303,-0.4740837812423706,0.1756499409675598,0.1722116321325302
4.32864111328125,0.1094999983906745,0.3199000060558319,0.5464999675750732,-0.8314748406410217,0.1677435934543609,0.1662077009677887
4.348494140625,0.2194999903440475,-0.4481000006198883,2.282500028610229,-0.9694256782531738,-0.0077841682359576,0.1544267386198043
4.36834716796875,0.7315999865531921,-1.0031999349594116,3.772599935531616,-0.7200355529785156,-0.1688955128192901,0.0322362296283245
4.38819873046875,0.812999963760376,-0.9527999758720398,3.0476999282836914,-0.1990198940038681,-0.2696010172367096,-0.1355422735214233
4.408052001953125,0.91839998960495,-0.592199981212616,1.284600019454956,0.150325208902359,-0.1202531829476356,-0.2464753985404968
4.4279052734375,0.4217000007629394,-0.4506999850273132,-0.1070999950170517,0.2424087822437286,-0.0309446882456541,-0.3331833481788635
4.447756591796875,-0.3459999859333038,-0.1976999938488006,-0.7163999676704407,0.1413367688655853,-0.0454134680330753,-0.335836261510849
4.467611328125,-1.3212999105453491,-0.2891999781131744,-0.5586999654769897,0.0131074227392673,-0.1126260980963707,-0.2250951081514358
4.487463134765625,-2.1103999614715576,-0.7013999819755554,0.0098999999463558,-0.0744208395481109,-0.1390678286552429,-0.0357268899679183
4.507314453125,-2.065199851989746,-1.236299991607666,0.6499999761581421,-0.0555363781750202,-0.1995260417461395,0.1410226076841354
4.527167724609375,-1.7007999420166016,-1.7163000106811523,0.2123999893665313,-0.019442968070507,-0.2753256857395172,0.2275909334421157
4.547022216796875,-0.9837999939918518,-2.026000022888184,-0.4775999784469604,-0.0684169083833694,-0.2850297093391418,0.1776221543550491
4.566873779296875,-0.6467999815940857,-1.914099931716919,-0.6222999691963196,-0.195738673210144,-0.1919687688350677,0.0461465045809745
4.58672705078125,-0.1062999963760376,-1.6606999635696411,-0.1683000028133392,-0.2675065994262695,-0.0870570242404937,-0.161250963807106
4.606580078125,-0.3449999988079071,-1.1384999752044678,0.447299987077713,-0.2621135413646698,0.0519060902297496,-0.376589685678482
4.626431640625,-0.9833999872207642,-0.5087000131607056,0.779699981212616,-0.1515643894672393,0.1222777664661407,-0.4812047183513641
4.64628466796875,-1.6500999927520752,0.1701999902725219,0.4539999961853027,-0.0631285607814788,0.1479690074920654,-0.431358128786087
4.666137939453125,-1.9496999979019165,0.6965000033378601,0.1647000014781952,-0.1229235380887985,0.0523424223065376,-0.2896024882793426
4.685989501953125,-2.02620005607605,0.91729998588562,0.4302999973297119,-0.1914626210927963,-0.0529707409441471,-0.1188743785023689
4.705842529296875,-1.7304999828338623,0.8169999718666077,1.1019999980926514,-0.1226617395877838,-0.0730245783925056,0.0716457664966583
4.725694091796875,-1.2755999565124512,0.3892000019550323,1.111799955368042,0.0614530444145202,-0.0937416329979896,0.204849287867546
4.74554736328125,-0.9318999648094176,0.1133999973535537,0.1542999893426895,0.2078512609004974,-0.1125388294458389,0.2557081878185272
4.765400390625,-0.9483999609947203,0.0654999986290931,-0.9983999729156494,0.1930334120988845,-0.076602503657341,0.2798635363578796
4.78525341796875,-0.960099995136261,-0.0188999995589256,-1.2495999336242676,0.0364773795008659,-0.0242426227778196,0.2795842885971069
4.8051064453125,-0.8152999877929688,-0.1729999929666519,-0.7274999618530273,-0.0799709856510162,-0.0685216262936592,0.2330189049243927
4.824958251953125,-0.6358000040054321,-0.1488000005483627,-0.4298000037670135,-0.0743859335780143,-0.0484328866004943,0.1683195531368255
4.844809814453125,-0.8008999824523926,-0.0271999984979629,0.0938999950885772,0.0089884456247091,-0.0078539820387959,0.0943175926804542
4.86466455078125,-1.0020999908447266,0.2751999795436859,-0.2978000044822693,0.1065523475408554,-0.0670555531978607,0.0685390830039978
4.884515869140625,-0.702299952507019,0.5794000029563904,-0.652899980545044,0.0791681334376335,-0.0492880977690219,0.0660781636834144
4.904369384765625,-0.6150000095367432,0.7804999947547913,-0.8628000020980835,0.0168947875499725,-0.0697433575987815,0.0681900158524513
4.924220703125,-0.531499981880188,0.943399965763092,-0.7044999599456787,-0.032148964703083,-0.0789412409067154,0.0651705935597419
4.944073974609375,-0.5378999710083008,1.1247999668121338,-0.4026999771595001,-0.0361632220447063,-0.0922057405114173,0.0841597765684127
4.963927001953125,-0.508899986743927,1.1694999933242798,0.3695999979972839,0.03394665569067,-0.1127133592963218,0.1166927143931388
4.9837802734375,-0.4174999892711639,1.1913999319076538,0.6274999976158142,0.159418374300003,-0.1562069654464721,0.1614604145288467
5.0036318359375,-0.1120999976992607,1.0433999300003052,0.6890000104904175,0.2189864665269851,-0.1974141895771026,0.1447750627994537
5.02348486328125,0.0199999995529651,0.9239999651908876,0.7845999598503113,0.258116751909256,-0.3322234153747558,0.0562694147229194
5.043337890625,-0.0910999998450279,0.8955999612808228,0.6777999997138977,0.3598170876502991,-0.3940604329109192,-0.0198443941771984
5.063189453125,-0.2958000004291534,0.8095999956130981,0.491599977016449,0.4636816084384918,-0.3308271467685699,-0.0581718236207962
5.083042724609375,-0.1328999996185302,0.5873000025749207,0.5791000127792358,0.5404237508773804,-0.3247185051441192,-0.1066570729017257
5.102895751953125,0.3389999866485595,0.6161999702453613,0.5856999754905701,0.6157172322273254,-0.3478615581989288,-0.2357416152954101
5.122747314453125,0.5922999978065491,0.8960999846458435,0.5607999563217163,0.6998072266578674,-0.2439446747303009,-0.4236786663532257
5.142600341796875,-0.2958999872207641,1.444700002670288,-0.1323999911546707,0.6927037239074707,-0.0638266876339912,-0.5121319890022278
5.16245361328125,-1.2803999185562134,1.6905999183654783,-0.4528999924659729,0.4043055176734924,0.0617322959005832,-0.3792425990104675
5.18230517578125,-1.714100003242493,0.9883999824523926,0.5546999573707581,0.0078016216866672,0.011833332479,-0.1382126212120056
5.202158203125,-1.3245999813079834,-0.0741999968886375,2.193699836730957,-0.2589021325111389,-0.0133517691865563,0.0649611577391624
5.22201123046875,-0.5263999700546265,-1.2062000036239624,4.073299884796143,-0.2029294371604919,0.0101229092106223,0.1471661627292633
5.241863037109375,0.2386999875307083,-2.071899890899658,4.662899971008301,0.2456376403570175,-0.031712632626295,0.0662701502442359
5.261716064453125,0.2583000063896179,-2.1821000576019287,2.419100046157837,0.7306297421455383,-0.0354999974370002,-0.0627445876598358
5.281569091796875,-0.1229999959468841,-2.004199981689453,-0.5941999554634094,0.8560665249824524,0.0059341192245483,-0.1226966455578804
5.301422119140625,-0.1287000030279159,-1.9157999753952024,-2.5643999576568604,0.6429094672203064,-0.0743684768676757,-0.1507964432239532
5.321273681640625,0.4232999980449676,-1.8978999853134155,-3.1696999073028564,0.3626968562602997,-0.1618094742298126,-0.193539559841156
5.341126953125,0.6312999725341797,-1.684999942779541,-3.075199842453003,0.1615302264690399,-0.2584134340286255,-0.2280970811843872
5.360978515625,0.580299973487854,-1.3219000101089478,-2.7437000274658203,0.0692721158266067,-0.2165430039167404,-0.1705361157655716
5.380833251953125,0.993499994277954,-0.9409999847412108,-2.5304999351501465,0.0424464084208011,-0.0312763005495071,-0.0282568801194429
5.4006845703125,1.3636999130249023,-0.7809999585151672,-2.438199996948242,-0.0208915919065475,0.1563465893268585,0.0674744322896003
5.4205380859375,1.343999981880188,-0.5412999987602234,-2.441400051116944,-0.2741214036941528,0.2127381861209869,0.1620538234710693
5.440389404296875,1.3145999908447266,-0.630899965763092,-1.2832999229431152,-0.6627364158630371,0.176854208111763,0.1988104581832885
5.46024267578125,1.001099944114685,-0.7027999758720398,1.1124999523162842,-0.8067086338996887,0.2161590307950973,0.1961226463317871
5.480095703125,0.79339998960495,-0.7879999876022339,2.995999813079834,-0.6252642273902893,0.3287502229213714,0.203313410282135
5.499948974609375,0.9090999960899352,-0.8344999551773071,3.769899845123291,-0.2768266797065735,0.2376440316438675,0.1472534239292144
5.519800537109375,0.936199963092804,-0.5489999651908875,2.6252999305725098,0.0261799395084381,-0.0400553047657012,0.017366025596857
5.539653564453125,1.132499933242798,-0.1596999913454055,0.9696999788284302,0.1431519091129303,-0.1387536823749542,-0.0955742299556732
5.559506591796875,1.321499943733215,0.1008000001311302,-0.0864999964833259,0.2220058739185333,-0.098977617919445,-0.204412966966629
5.5793583984375,1.0958999395370483,0.3667999804019928,-1.056999921798706,0.2409078031778335,-0.0621860809624195,-0.2877000868320465
5.59921142578125,0.6293999552726746,0.6876999735832214,-1.917699933052063,0.160517930984497,-0.0045553091913461,-0.2721841037273407
5.619064453125,0.4658999741077423,0.8066999912261963,-1.9227999448776243,-0.0111002940684556,0.1533097177743911,-0.1592438369989395
5.63891748046875,0.564300000667572,0.5144000053405762,-0.8946999907493591,-0.1499586850404739,0.2231054306030273,-0.0568104684352874
5.658769287109375,0.6750999689102173,0.1580999940633773,-0.095100000500679,-0.1975014507770538,0.1402022987604141,-0.0064751715399324
5.678622314453125,0.6884999871253967,0.0162000004202127,0.1805000007152557,-0.2047445774078369,0.0879995003342628,0.0164410006254911
5.698475341796875,0.51419997215271,-0.1242999956011772,0.2008000016212463,-0.177901417016983,0.0596553534269332,0.032148964703083
5.718325439453125,0.4512999951839447,-0.2204999923706054,-0.0507999993860721,-0.1640609502792358,0.087353728711605,0.0609818026423454
5.73818017578125,0.4984999895095825,-0.2502999901771545,-0.271699994802475,-0.1827359646558761,0.1056273281574249,0.0549778714776039
5.758033203125,0.4415999948978424,-0.1394999921321869,-0.1606999933719635,-0.2098234891891479,0.0975290015339851,0.0001919862115755
5.777884765625,0.3294999897480011,0.0542999990284442,0.0949999988079071,-0.1566607505083084,0.0656418353319168,-0.0485201515257358
5.79773779296875,0.1571999937295913,0.4644999802112579,-0.4089999794960022,-0.0630587488412857,0.1245990544557571,-0.0715410485863685
5.8175908203125,0.0562999993562698,0.740399956703186,-0.8068000078201294,-0.0110479341819882,0.2645919024944305,-0.0417657271027565
5.837442626953125,0.0264999996870756,0.8892999887466431,-0.8955000042915344,-0.0169296935200691,0.3371103405952453,-0.006998770404607
5.857295654296875,-0.3269000053405761,1.048799991607666,-0.9351999759674072,-0.0646644458174705,0.3270223438739776,0.0605978332459926
5.877148681640625,-0.5013999938964844,1.1180999279022217,-0.5372999906539917,-0.0848404541611671,0.3262020349502563,0.1669232845306396
5.897001953125,-0.2340999990701675,1.003999948501587,0.0944999977946281,-0.0325154848396778,0.3534466326236725,0.2982418537139892
5.91685205078125,0.0167999994009733,0.8405999541282654,0.0742999985814094,0.0736703500151634,0.3488738536834717,0.3950029015541076
5.936706787109375,0.1211999952793121,0.8341999650001526,-0.4168999791145324,0.0815941393375396,0.3963119089603424,0.4914149045944214
5.95655810546875,0.46069997549057,0.6686999797821045,0.1717000007629394,0.0285535864531993,0.4512374103069305,0.5718047618865967
5.976411376953125,0.9985999464988708,0.4626999795436859,1.3054999113082886,0.1319119781255722,0.4010592103004455,0.5572138428688049
5.9962646484375,1.1754000186920166,0.6111999750137329,1.0556999444961548,0.2971772253513336,0.4288623034954071,0.5311211347579956
6.01611767578125,1.2603999376296997,0.858199954032898,0.1933999955654144,0.2566681206226349,0.5175075531005859,0.5277875661849976
6.035970703125,0.9386999607086182,0.837399959564209,0.1231999993324279,0.0483805276453495,0.5682617425918579,0.5034402012825012
6.055822265625,0.7573999762535095,0.7049999833106995,0.8104999661445618,-0.1976934373378753,0.534105658531189,0.4892681539058685
6.075675537109375,0.6154999732971191,0.0945999994874,1.730799913406372,-0.345610111951828,0.3629761338233948,0.4107981324195862
6.095527099609375,0.8557999730110168,-0.4090999960899353,2.233599901199341,-0.3196744918823242,0.2955540418624878,0.2870543003082275
6.115380126953125,0.8310999870300293,-0.6705999970436096,1.9830999374389648,-0.1764527857303619,0.2290919125080108,0.1586504280567169
6.135231689453125,0.8161999583244324,-0.8082999587059021,1.1072999238967896,-0.0940034314990043,0.1422443389892578,0.0516791976988315
6.15508642578125,0.6776999831199646,-1.0471999645233154,0.5023999810218811,-0.0486423261463642,0.1574636101722717,-0.0125663708895444
6.17493798828125,0.6064000129699707,-1.2537999153137207,0.4213999807834625,0.0144164199009537,0.2137679308652877,-0.0888896211981773
6.194791015625,0.1789999902248382,-1.4896999597549438,0.748699963092804,0.1632755547761917,0.2169618755578994,-0.1551248580217361
6.214642578125,-0.8694999814033508,-1.3385999202728271,-0.0776999965310096,0.2927091717720032,0.1024508252739906,-0.1120501384139061
6.23449560546875,-1.4608999490737915,-1.249699950218201,-1.208199977874756,0.2350783944129943,0.013526301831007,0.0333183370530605
6.254348876953125,-1.5702999830245972,-1.3489999771118164,-1.9428999423980715,0.011693705804646,0.0027401668485254,0.2236988544464111
6.274200439453125,-1.011799931526184,-1.8633999824523928,-1.520699977874756,-0.256790280342102,0.0178372655063867,0.325381726026535
6.294053466796875,-0.5084999799728394,-2.096699953079224,-0.4946999847888946,-0.4320562481880188,-0.005166174378246,0.3059562146663666
6.313906494140625,0.0319999977946281,-2.170799970626831,0.6234999895095825,-0.4179016351699829,0.0141546204686164,0.1987580955028534
6.333759765625,-0.0614000000059604,-1.8626999855041504,0.9787999987602234,-0.2769139409065246,0.1213352903723716,0.0271224156022071
6.353611328125,-0.5133000016212463,-1.2724000215530396,0.7301999926567078,-0.2212204784154892,0.2155830711126327,-0.1239881888031959
6.433022216796875,-0.4529999792575836,0.3747999966144562,0.0252999998629093,-0.0823446363210678,0.0473856888711452,-0.1732937395572662
6.45287548828125,-0.4495999813079834,0.6196999549865723,-0.2558999955654144,-0.0708778202533721,0.0491833798587322,-0.1462760418653488
6.472726806640625,-0.6636999845504761,0.7834999561309814,-0.2809999883174896,-0.1452986598014831,0.0529358349740505,-0.0958011224865913
6.492580322265625,-0.7633999586105347,0.6947999596595764,0.1685999929904937,-0.2157052457332611,-0.0230907052755355,-0.0336150415241718
6.512433349609375,-0.6951999664306641,0.5390999913215637,0.9056999683380128,-0.1865233331918716,-0.0522900633513927,0.0245567820966243
6.532284912109375,-0.4407999813556671,0.2691999971866607,1.3014999628067017,-0.035168383270502,-0.0461639575660228,0.0615752153098583
6.552137939453125,-0.4332999885082245,0.1283999979496002,0.944499969482422,0.0985936522483825,-0.0475427694618701,0.0681376531720161
6.5719912109375,-0.48539999127388,-0.0068999999202787,0.5489000082015991,0.1271646916866302,-0.0803375020623207,0.0611039772629737
6.5918427734375,-0.4643999934196472,-0.1962999999523162,0.4296999871730804,0.133657306432724,-0.2203478217124939,0.0511206947267055
6.61169580078125,-0.251800000667572,-0.2395999878644943,-0.3088999986648559,0.1358564347028732,-0.3129724264144897,0.0187448356300592
6.631548828125,-0.2198999971151352,-0.0670999959111213,-0.7836999893188477,0.1110378429293632,-0.2712416052818298,-0.0220958683639764
6.65140185546875,-0.334199994802475,0.1100999936461448,-0.9847999811172484,0.0647517144680023,-0.2426182180643081,-0.0196349546313285
6.671253662109375,-0.1395999938249588,0.1384999901056289,-0.6789999604225159,0.0139451809227466,-0.2227214723825454,-0.0232303328812122
6.691106689453125,-0.049100000411272,0.1858000010251999,-0.4062999784946441,-0.0137008344754576,-0.2707878351211548,-0.0549080595374107
6.710958251953125,-0.3078999817371368,0.3852999806404114,-0.2144999951124191,-0.0171216800808906,-0.3031287789344787,-0.0719773769378662
6.730811279296875,-0.5317999720573425,0.5852999687194824,-0.336899995803833,-0.0042760567739605,-0.3134262263774872,-0.0262672044336795
6.75066455078125,-0.1657999902963638,0.5274999737739563,-0.1444000005722046,-0.01593485660851,-0.3374245166778564,0.004328416660428
6.770517578125,0.1303000003099441,0.4319999814033508,0.1261000037193298,0.0069638635031878,-0.3938859105110168,-0.0407185330986976
6.79037060546875,-0.0537000000476837,0.6171999573707581,-0.1015999987721443,0.0587652362883091,-0.3785444498062134,-0.0797440931200981
6.81022216796875,-0.241699993610382,0.7146999835968018,-0.1481000036001205,0.0651531442999839,-0.252741128206253,-0.0913156270980835
6.830075439453125,-0.4551999866962433,0.7226999998092651,0.4148999750614166,0.1025729998946189,-0.2149721980094909,-0.0911410897970199
6.849928466796875,-0.7010999917984009,0.7631999850273132,0.44200000166893,0.1680926531553268,-0.2835811078548431,-0.0595331788063049
6.869780029296875,-0.3732999861240387,0.644599974155426,0.611799955368042,0.2384992390871048,-0.3260798752307892,-0.0795172005891799
6.889633056640625,-0.2768000066280365,0.5821999907493591,0.4443999826908111,0.3099879324436188,-0.369625836610794,-0.1577254086732864
6.909484619140625,-0.5931000113487244,0.7523999810218811,0.2245999872684478,0.3484549820423126,-0.3709522783756256,-0.2145009636878967
6.929337890625,-0.6495000123977661,0.758899986743927,0.3127999901771545,0.3698876202106476,-0.3724009096622467,-0.2557256519794464
6.94919091796875,-0.5842999815940857,0.7125999927520752,0.4722999930381775,0.433173269033432,-0.3883183002471924,-0.3216641843318939
6.969044189453125,-0.7116000056266785,0.9099999666213988,0.0105999996885657,0.4786739945411682,-0.3370754420757293,-0.3405660986900329
6.9888955078125,-0.8762999773025513,0.991499960422516,-0.0929999947547912,0.3780383169651031,-0.2893232405185699,-0.3199014067649841
7.008747314453125,-0.6904999613761902,0.600600004196167,0.961899995803833,0.2372426092624664,-0.301784873008728,-0.2635272741317749
7.02860205078125,-0.5507999658584595,0.0776999965310096,1.6710999011993408,0.2396162450313568,-0.2385166883468628,-0.244031935930252
7.04845361328125,-0.4014999866485595,-0.3470999896526336,2.125499963760376,0.350758820772171,-0.0771261006593704,-0.2018822282552719
7.068306640625,-0.1103999987244606,-0.6337999701499939,2.0112998485565186,0.525536060333252,-0.0705462098121643,-0.2184977680444717
7.088158447265625,-0.0808999985456466,-0.6262999773025513,1.0511000156402588,0.6291213631629944,-0.0625875070691108,-0.2575931549072265
7.108012939453125,-0.3400999903678894,-0.5769999623298645,0.3273999989032745,0.6867521405220032,0.0915599688887596,-0.2461961507797241
7.127864501953125,-0.4754999876022339,-0.6736999750137329,-0.1835999935865402,0.6703984141349792,0.1202880889177322,-0.1813746094703674
7.147717529296875,-0.3768999874591827,-0.835099995136261,-0.5867999792098999,0.5045048594474792,0.112765721976757,-0.1523323357105255
7.16757080078125,-0.449099987745285,-1.0363999605178833,-0.6036999821662903,0.3168819844722748,0.0716457664966583,-0.1255066245794296
7.18742236328125,-0.2660000026226043,-1.1176999807357788,0.0370000004768371,0.211359366774559,-0.0239808242768049,-0.0994488596916198
7.207275390625,0.1924999952316284,-1.2792999744415283,0.2842999994754791,0.3047170341014862,-0.0344178937375545,-0.0665668547153472
7.22712841796875,0.6262999773025513,-1.3873000144958496,-0.2918999791145324,0.4387234151363373,0.0486248731613159,-0.0879296883940696
7.246981689453125,0.5561000108718872,-1.1835999488830566,-0.9807999730110168,0.4733507335186004,0.1056622341275215,-0.1113869100809097
7.266833251953125,0.2917999923229217,-0.8380999565124512,-1.567099928855896,0.3913377225399017,0.0708778202533721,-0.048851765692234
7.286686279296875,0.4364999830722809,-0.7045999765396118,-1.8380999565124512,0.2364746630191803,0.1234645918011665,0.0524122379720211
7.306539306640625,0.774399995803833,-0.6833999752998352,-1.0861999988555908,0.0651182308793068,0.2219884246587753,0.1235693097114563
7.326390869140625,0.7865999937057495,-0.8895999789237976,0.3527999818325043,-0.0205599777400493,0.2067866027355194,0.1276708394289016
7.346244140625,0.638700008392334,-0.8170999884605408,1.6154999732971191,0.1015432551503181,0.1901710778474807,0.1188569217920303
7.36609716796875,-0.0696999952197074,-0.3130999803543091,1.25409996509552,0.3660828173160553,0.1838704347610473,0.2004859745502472
7.385950439453125,-0.0039999997243285,-0.3910999894142151,0.589199960231781,0.2406459897756576,0.0737401619553566,0.3209834992885589
7.4058017578125,0.2750000059604645,-0.2431999891996383,0.1649999916553497,0.0641583055257797,-0.2921332120895386,0.2813819944858551
7.4256552734375,-0.0292999986559152,0.0310999993234872,-0.2211999893188476,-0.0796568244695663,-0.3007551431655884,0.2288126647472381
7.44550830078125,-0.3914999961853027,0.3883000016212463,0.1312000006437301,-0.0746128261089325,-0.2473655194044113,0.2923251986503601
7.46535986328125,0.2158999890089035,0.2827999889850616,-0.7400999665260315,0.0992045179009437,-0.085172064602375,0.2923600971698761
