seconds_elapsed,accel_x,accel_y,accel_z,gyro_x,gyro_y,gyro_z
0.20874072265625,-0.3053550124168396,-0.4346739947795868,1.6181459426879885,0.0050874999724328,-0.1671999990940094,-0.0321750007569789
0.243183349609375,-0.3053550124168396,-0.4346739947795868,1.6181459426879885,-0.0559624992311,-0.1501500010490417,-0.0224124994128942
0.277626220703125,-0.3053550124168396,-0.4346739947795868,1.6181459426879885,-0.2917749881744385,-0.3126749992370605,-0.0114124994724988
0.312069091796875,-0.3053550124168396,-0.4346739947795868,1.6181459426879885,-0.1244374960660934,-0.1696749925613403,-0.0467500016093254
0.346511962890625,0.0761260017752647,0.3957239985466003,0.0601680018007755,0.1919499933719635,-0.0365750007331371,-0.0859375
0.38095458984375,0.2917639911174774,0.6275299787521362,-0.8466010093688965,0.0356125012040138,-0.1659625023603439,-0.1615625023841858
0.415397705078125,0.2270430028438568,0.7159140110015869,0.2224059998989105,-0.0131999999284744,-0.0646250024437904,-0.1482249945402145
0.4498408203125,0.2365310043096542,0.7512829899787903,0.2581320106983185,0.0723249986767768,0.1639000028371811,-0.0149875003844499
0.484283447265625,-0.3556700050830841,0.6959360241889954,-0.0553990006446838,-0.1049124971032142,0.2712875008583069,-0.0235124994069337
0.5187265625,-0.8067929744720459,0.2402029931545257,0.0580269992351532,-0.2514874935150146,-0.1073874980211258,0.291637510061264
0.55316943359375,0.9289900064468384,-0.1091760024428367,-0.112585999071598,-0.1269125044345855,-0.1208624988794326,0.2463999986648559
0.587612548828125,0.6763449907302856,-0.0616369992494583,-0.8384029865264893,-0.0461999997496604,-0.052387498319149,0.0888250023126602
0.62205517578125,0.0409500002861022,0.0988319963216781,-0.8162220120429993,-0.022962499409914,0.0759000033140182,-0.0259875003248453
0.656498046875,-0.3575389981269836,0.3393419981002807,-0.7560250163078308,-0.1159124970436096,0.2347124963998794,-0.0247499998658895
0.69094091796875,-0.6954540014266968,0.4791469871997833,-0.5634999871253967,-0.2355374991893768,0.233474999666214,0.0753500014543533
0.7253837890625,-0.7067999839782715,0.6024249792098999,0.1056030020117759,-0.2600125074386596,0.2932874858379364,0.2428250014781952
0.759826416015625,0.0680069997906684,0.4183079898357391,0.1424970030784607,-0.1036750003695488,0.2615250051021576,0.318450003862381
0.79426953125,0.3094739913940429,0.6510339975357056,-0.4842729866504669,-0.1757249981164932,0.1759999990463256,0.1913999915122985
0.828712158203125,0.0200810004025697,0.8533310294151306,-0.3166919946670532,-0.191674992442131,0.1149500012397766,0.2476374953985214
0.8631552734375,0.5907109975814819,0.922919988632202,-0.3962799906730652,-0.152487501502037,0.2151875048875808,0.3086875081062317
0.897597900390625,0.8124449849128723,1.0238560438156128,-0.2146899998188018,-0.0144375003874301,0.3238124847412109,0.1988250017166137
0.932041015625,-0.0918100029230117,1.110705018043518,-0.6480510234832764,-0.0327249988913536,0.2737624943256378,0.2793999910354614
0.966484130859375,0.3031339943408966,0.8868749737739563,-0.0916860029101371,-0.0889625027775764,0.2065249979496002,0.4321624934673309
1.000927001953125,0.5835769772529602,0.6787959933280945,0.249206006526947,0.0833249986171722,0.1772374957799911,0.3966875076293945
1.035369873046875,0.6679099798202515,0.8155890107154846,-0.3366329967975616,0.1919499933719635,0.2175250053405761,0.3856875002384186
1.0698125,0.9328789710998536,0.7070469856262207,-1.1626019477844238,-0.031624998897314,0.2591874897480011,0.3954499959945678
1.104255615234375,0.7020819783210754,0.1617110073566436,-0.6197019815444946,-0.3858250081539154,0.2199999988079071,0.3441624939441681
1.138698486328125,0.0636240020394325,-0.6933000087738037,0.3908079862594604,-0.453062504529953,0.305525004863739,0.3514499962329864
1.173141357421875,0.5584779977798462,-0.7463619709014893,-0.1264339983463287,-0.1964875012636184,0.201712504029274,0.3783999979496002
1.207584228515625,1.0377819538116455,-0.1451549977064132,-1.250694990158081,-0.2710124850273132,-0.1171500012278556,0.054587498307228
1.24202734375,0.5265340209007263,0.56175297498703,-0.473360002040863,-0.4591124951839447,0.1381874978542328,-0.2910875082015991
1.276469970703125,-1.7379209995269775,0.5787190198898315,0.2370930016040802,-0.5092999935150146,0.1222374960780143,-0.1200374960899353
1.310912841796875,-1.089540958404541,0.4523130059242248,1.087054967880249,-0.6131125092506409,-0.2906749844551086,0.0387750007212162
1.34535595703125,-0.5662689805030823,0.2763450145721435,1.7389270067214966,-0.1769624948501587,0.0196624994277954,0.1988250017166137
1.379798828125,-0.3800329864025116,0.1056070029735565,-0.0003729999880306,-0.002199999988079,0.088137499988079,0.0215875003486871
1.41424169921875,-0.8553469777107239,0.3683379888534546,-0.7020210027694702,-0.2967250049114227,-0.0805749967694282,-0.0479874983429908
1.4486845703125,-0.7740910053253174,0.2054419964551925,0.9657359719276428,-0.3284874856472015,0.2102375030517578,0.0215875003486871
1.48312744140625,-1.160133957862854,-0.0143790002912282,1.0856579542160034,-0.022962499409914,0.055137500166893,0.1266375035047531
1.517570068359375,-0.2290250062942505,0.1412809938192367,0.6089670062065125,0.0808499976992607,-0.0206249989569187,0.1108250021934509
1.55201318359375,-0.6772239804267883,0.2548750042915344,0.1249139979481697,0.0318999998271465,0.0819500014185905,0.0130624994635581
1.5864560546875,-1.032593011856079,0.2423519939184188,0.7055960297584534,-0.0218624994158744,0.0514249987900257,0.0215875003486871
1.62089892578125,-1.3203489780426023,0.4257070124149322,0.8066539764404297,0.0686125010251998,0.1504250019788742,0.1035374999046325
1.655341552734375,-0.5671910047531128,0.4032309949398041,0.6825249791145325,0.0478499978780746,0.2102375030517578,0.0692999958992004
1.68978466796875,-0.5250880122184753,0.1845249980688095,1.30069100856781,0.2164250016212463,0.0098999999463558,-0.1077999994158744
1.724227294921875,-0.5922449827194214,0.4537610113620758,-0.0719050019979476,0.4547125101089477,-0.0108624994754791,-0.1518000066280365
1.758670654296875,-0.3945139944553375,0.593375027179718,-1.4234100580215454,0.333712488412857,-0.0499125011265277,-0.1077999994158744
1.793113525390625,-0.0509449988603591,0.6211779713630676,-1.3986190557479858,0.1419000029563903,-0.0646250024437904,-0.1287000030279159
1.827556396484375,-0.6022329926490784,0.600193977355957,-0.9006770253181458,0.0063249999657273,0.0576125010848045,-0.0479874983429908
1.861999267578125,-0.4228819906711578,0.2638820111751556,0.008305000141263,0.0050874999724328,0.0208999998867511,0.0008249999955296
1.896442138671875,-0.8835629820823669,0.3831610083580017,-0.1461919993162155,0.05884999781847,-0.1231999993324279,0.0203499998897314
1.930885009765625,-0.2863140106201172,0.2773320078849792,0.0243570003658533,0.0771375000476837,-0.1733874976634979,0.0167750008404254
1.965327880859375,-0.251118004322052,0.3757199943065643,-0.3473840057849884,0.2689499855041504,-0.2271499931812286,-0.1322750002145767
1.999770751953125,-0.8807899951934814,0.8291040062904358,-1.011296033859253,0.238425001502037,-0.2246749997138977,-0.0980374962091445
2.034213623046875,-0.6272730231285095,0.753000020980835,-0.6659060120582581,0.1308999955654144,-0.2331999987363815,-0.0296999998390674
2.068656494140625,-0.4194389879703522,0.4294509887695312,0.1009749993681907,0.2274249941110611,-0.3994374871253967,-0.0589874982833862
2.103099365234375,0.0988759994506836,0.4836339950561523,0.1648930013179779,0.328900009393692,-0.3150124847888946,-0.1372250020503997
2.13754248046875,-0.2663129866123199,0.5518820285797119,-0.1319569945335388,0.2323749959468841,-0.3444375097751617,-0.2300374954938888
2.1719853515625,-0.3895269930362701,0.4771830141544342,0.2535560131072998,0.0063249999657273,-0.113437496125698,-0.1518000066280365
2.20642822265625,-0.3904710114002228,-0.2264820039272308,1.571213960647583,0.0441375002264976,-0.0206249989569187,-0.0980374962091445
2.24087109375,-0.5146669745445251,-0.516664981842041,0.8968600034713745,0.1053249984979629,-0.1561999917030334,-0.056512501090765
2.27531396484375,0.1721460074186325,-0.7378150224685669,0.6425430178642273,-0.0951500013470649,-0.2381500005722046,-0.0809874981641769
2.3097568359375,0.1477770060300827,-1.0238289833068848,1.3405879735946655,0.233474999666214,-0.3040125072002411,-0.2312749922275543
2.34419970703125,-0.2624930143356323,-0.5639010071754456,-0.2655349969863891,0.5352874994277954,-0.1159124970436096,-0.1909874975681305
2.378642578125,0.1592629998922348,-0.2030189931392669,-1.6943169832229614,0.2641375064849853,0.0904750004410743,-0.1017500013113021
2.41308544921875,0.1680970042943954,-0.3477729856967926,-0.2822209894657135,-0.0731500014662742,0.1504250019788742,-0.0627000033855438
2.4475283203125,0.1479769945144653,-0.4339489936828613,1.010043978691101,0.0197999998927116,0.1870000064373016,0.0472999997437
2.48197119140625,0.1350249946117401,-0.1958339959383011,0.1682419925928115,0.0820875018835067,0.0904750004410743,0.2061125040054321
2.5164140625,0.6277899742126465,-0.2852190136909485,0.2202959954738617,-0.2197249978780746,0.0086624994874,0.2268749922513961
2.55085693359375,1.1890039443969729,-0.5851079821586609,1.2644729614257812,0.0160875003784894,-0.113437496125698,0.1108250021934509
2.585300048828125,0.4180009961128235,-0.1013720035552978,-0.4766510128974914,0.2861374914646148,0.1186624988913536,0.007012499962002
2.61974267578125,0.1830479949712753,0.2633030116558075,-1.7771320343017578,-0.128150001168251,0.0526624992489814,0.1278750002384185
2.654185546875,1.0613869428634644,0.0744829997420311,0.4237090051174164,-0.2257750034332275,0.0771375000476837,-0.0639375001192092
2.68862890625,-0.1311019957065582,0.2321469932794571,0.3103890120983124,0.1456124931573867,0.190712496638298,-0.0309375002980232
2.723071533203125,-0.0468799993395805,0.5199329853057861,-1.2297929525375366,-0.0669625028967857,0.1846625059843063,0.1645874977111816
2.7575146484375,0.6143869757652283,0.2952989935874939,0.2501699924468994,-0.3235374987125397,0.0148499999195337,0.0533500015735626
2.791957275390625,0.3076109886169433,0.1762389987707138,0.9000599980354309,0.0686125010251998,0.2237125039100647,0.0753500014543533
2.826400146484375,0.0367810018360614,0.3988089859485626,-0.5082579851150513,0.091849997639656,0.2554749846458435,0.1255374997854232
2.860843017578125,0.0453069992363452,0.5821430087089539,-0.0287379994988441,-0.128150001168251,0.086899995803833,0.0937749966979026
2.895285888671875,-0.2110790014266967,0.6027770042419434,0.5190240144729614,0.1053249984979629,0.1687124967575073,0.1951124966144561
2.929728759765625,0.0450129993259906,0.9226080179214478,-0.6255239844322205,0.166374996304512,0.1747625023126602,0.2989250123500824
2.964171875,0.767304003238678,0.9257529973983764,-0.5934159755706787,0.038087498396635,0.0306624993681907,0.2684000134468078
2.998614501953125,0.4334869980812073,1.1714240312576294,0.1556459963321685,0.0746624991297721,0.0904750004410743,0.3038749992847442
3.0330576171875,0.470986008644104,1.1076879501342771,0.1211579963564872,0.1761374920606613,0.2652375102043152,0.4334000051021576
3.067500244140625,0.9382380247116088,0.6713629961013794,-0.2806729972362518,-0.0731500014662742,0.1601874977350235,0.4174500107765198
3.101943359375,0.7635830044746399,-0.0798859968781471,1.2127209901809692,-0.0266750007867813,0.1454750001430511,0.1633500009775161
3.13638623046875,0.1057770028710365,-0.4413959980010986,0.2288260012865066,0.3312374949455261,0.1711875051259994,0.0595375001430511
3.1708291015625,-0.1083559989929199,-0.5010979771614075,-0.9600830078125,0.1016125008463859,0.0538999997079372,-0.0101749999448657
3.205272216796875,0.0229359995573759,-0.6721100211143494,-0.4227370023727417,-0.1256749927997589,0.1137124970555305,-0.0541750006377697
3.239715087890625,-0.7817590236663818,-0.7373290061950684,0.4450930058956146,-0.1476749926805496,0.2164250016212463,-0.0785124972462654
3.274157958984375,-1.1013259887695312,-0.5407840013504028,0.1115410029888153,-0.1414874941110611,0.1211374998092651,0.0252999998629093
3.308600830078125,-0.7845839858055115,-0.5078650116920471,0.3652629852294922,-0.2930124998092651,0.1894749999046325,0.0105875004082918
3.343043701171875,-1.0064109563827517,-0.5699049830436707,1.4043190479278564,-0.0681999996304512,0.2432374954223632,-0.056512501090765
3.377486572265625,-1.425408959388733,-0.2159450054168701,0.2909669876098633,0.1088999956846237,0.2492875009775161,-0.0101749999448657
3.4119296875,-1.2449339628219604,-0.2886669933795929,-0.1216910034418106,-0.1072499975562095,0.2542375028133392,0.0753500014543533
3.46359375,-0.8260120153427124,-0.2937740087509155,0.868798017501831,-0.1146750003099441,0.1846625059843063,0.0350624993443489
3.49803662109375,-0.8609899878501892,-0.0671309977769851,0.4663650095462799,0.0453750006854534,0.1747625023126602,0.0350624993443489
3.532479736328125,-0.4597359895706177,0.2497159987688064,-0.2921259999275207,0.0368499979376792,0.147949993610382,0.0948750004172325
3.566922607421875,-0.3576880097389221,0.1088569983839988,0.2113440036773681,-0.0719124972820282,-0.0378125011920928,0.1145374998450279
3.601365234375,-0.0827630013227462,0.3365960121154785,-0.532725989818573,0.0759000033140182,-0.0706750005483627,0.1731124967336654
3.635808349609375,-0.2408339977264404,0.4406149983406067,-1.1185259819030762,0.0466125011444091,0.0086624994874,0.1731124967336654
3.670251220703125,0.1713780015707016,0.5174440145492554,-0.2617569863796234,-0.1354375034570694,-0.2186249941587448,0.1683000028133392
3.7046943359375,0.099042996764183,0.2927590012550354,0.4921059906482696,-0.048675000667572,-0.0096249999478459,0.0400125011801719
3.73913720703125,-0.6314839720726013,0.4454610049724579,-0.2342029958963394,0.1028499975800514,0.062424998730421,-0.0797500014305114
3.773580078125,-0.3052879869937897,0.3568829894065857,0.4429480135440826,-0.0571999996900558,-0.1526249945163726,-0.1077999994158744
3.80802294921875,-0.714165985584259,0.2748700082302093,0.1621160060167312,0.0735625028610229,-0.1513874977827072,-0.1702249944210052
3.842465576171875,-0.4974009990692138,0.2744230031967163,-0.8521220088005066,0.1699499934911728,-0.1428624987602234,-0.1017500013113021
3.87690869140625,-0.4749729931354522,0.378275990486145,-0.9340000152587892,0.0416624993085861,-0.2161500006914138,-0.0907500013709068
3.9113515625,-0.3264870047569275,0.386256992816925,-0.5952190160751343,-0.0181499999016523,-0.2576749920845032,-0.0797500014305114
3.945794677734375,-0.3978399932384491,0.5667099952697754,-0.8895879983901978,0.0576125010848045,-0.2234375029802322,-0.0712250024080276
3.9802373046875,-0.8830699920654297,1.140086054801941,-0.7856420278549194,0.0416624993085861,-0.2466749995946884,-0.0980374962091445
4.014680419921875,-0.9860429763793944,1.0623619556427002,-0.1078260019421577,-0.0303875003010034,-0.2283875048160553,0.004537499975413
4.049123046875,-0.3157550096511841,0.7955359816551208,0.5629569888114929,0.0368499979376792,-0.2539624869823456,0.1095874980092048
4.08356591796875,-0.1021090000867843,0.5925549864768982,0.8046910166740417,0.1676124930381775,-0.2857249975204468,-0.0101749999448657
4.1180087890625,-0.150407001376152,0.5102900266647339,0.5626590251922607,0.1896124929189682,-0.2246749997138977,-0.0516999997198581
4.15245166015625,-0.3487089872360229,0.4901129901409149,0.5663220286369324,0.0466125011444091,-0.1208624988794326,-0.0589874982833862
4.186894775390625,-0.0849360004067421,-0.3022350072860718,1.358659029006958,0.0246124994009733,-0.1513874977827072,-0.0309375002980232
4.221337646484375,0.270918995141983,-0.5170890092849731,0.9249029755592346,0.198137491941452,-0.1416250020265579,-0.1615625023841858
4.25578076171875,-0.0782999992370605,-0.5520449876785278,0.0072240000590682,0.1676124930381775,-0.1220999956130981,-0.2043250054121017
4.290223388671875,0.1611430048942566,-0.8358229994773865,0.0061160000041127,0.0966624990105629,-0.1671999990940094,-0.1909874975681305
4.324666259765625,0.2723079919815063,-0.8858829736709595,-0.214820995926857,0.0576125010848045,-0.1269125044345855,-0.2055625021457672
4.359109130859375,0.381177008152008,-0.8618019819259644,-0.2806749939918518,-0.0499125011265277,-0.1146750003099441,-0.1945624947547912
4.393552001953125,0.9251469969749452,-0.9441220164299012,0.4541380107402801,-0.0633874982595443,-0.0706750005483627,-0.2655124962329864
4.4279951171875,0.3866609930992126,-0.8194630146026611,0.7676159739494324,0.0661375001072883,0.055137500166893,-0.2985124886035919
4.46243798828125,0.139041006565094,-0.3776389956474304,0.181987002491951,-0.022962499409914,-0.031624998897314,-0.2117500007152557
4.496880615234375,0.3484599888324737,-0.223811998963356,0.2530510127544403,-0.2222000062465667,-0.1636250019073486,-0.1652749925851822
4.53132373046875,0.724045991897583,-0.2471099942922592,0.8310750126838684,-0.0571999996900558,-0.1354375034570694,-0.1775124967098236
4.565766357421875,0.3273229897022247,0.0072050001472234,-0.1484400033950805,0.1028499975800514,-0.0365750007331371,-0.178749993443489
4.60020947265625,-0.0211750008165836,0.265514999628067,-0.8988490104675293,-0.1427250057458877,-0.081675000488758,-0.0882750004529953
4.634652587890625,0.3668319880962372,-0.0572879984974861,0.3394269943237304,-0.1782000064849853,-0.1036750003695488,-0.0650374963879585
4.66909521484375,0.392426997423172,-0.0947920009493827,0.0681030005216598,0.0661375001072883,0.0098999999463558,-0.1407999992370605
4.703538330078125,0.0463959984481334,0.1862830072641372,-1.0526670217514038,-0.1231999993324279,0.0489500015974044,-0.142037495970726
4.73798095703125,-0.270006000995636,0.1210149973630905,-0.0931970030069351,-0.2734875082969665,0.0416624993085861,-0.1042250022292137
4.772424072265625,-0.1345899999141693,0.2196429967880249,0.7934370040893555,-0.0633874982595443,0.1454750001430511,-0.0479874983429908
4.806866943359375,-0.3487519919872284,0.3702169954776764,-0.4713050127029419,-0.0119624994695186,0.1516624987125396,0.0203499998897314
4.841309814453125,-0.2210749983787536,0.368927001953125,-0.4842180013656616,-0.2050125002861023,0.0501874983310699,0.0790624991059303
4.875752685546875,0.3389840126037597,0.3644450008869171,0.1678089946508407,-0.0901999995112419,0.2199999988079071,0.1145374998450279
4.910195556640625,0.218869000673294,0.4043090045452118,-0.2972039878368377,0.0160875003784894,0.1821874976158142,0.0900624990463256
4.944638427734375,0.2061029970645904,0.7345830202102661,-0.6654450297355652,-0.0706750005483627,0.1442375034093856,0.136537492275238
4.979081298828125,0.0129979997873306,0.7626680135726929,0.1166979968547821,-0.052387498319149,0.1674750000238418,0.2330625057220459
5.01352392578125,0.6154189705848694,0.8504199981689453,0.1457480043172836,0.0943249985575676,0.1809500008821487,0.2806375026702881
5.047967041015625,0.6853259801864624,0.7908099889755249,-0.3952380120754242,-0.0181499999016523,0.2322375029325485,0.3148750066757202
5.082409912109375,0.2972199916839599,0.4469349980354309,0.387611985206604,-0.3528249859809875,0.1504250019788742,0.2648249864578247
5.11685302734375,0.073582999408245,-0.3277339935302734,1.3420369625091553,-0.2367749959230423,0.0514249987900257,0.2818749845027923
5.1512958984375,0.3273549973964691,-0.4026750028133392,0.2197899967432022,-0.1304875016212463,0.0159499999135732,0.0313500016927719
5.185738525390625,-0.0280469991266727,-0.3890079855918884,0.2419680058956146,-0.0571999996900558,0.1308999955654144,-0.0967999994754791
5.220181640625,-0.5652350187301636,0.1002850010991096,0.2829349935054779,0.0197999998927116,0.3299999833106994,-0.142037495970726
5.254624267578125,-1.7348159551620483,0.3626079857349396,0.7678269743919373,-0.002199999988079,0.3898124992847442,0.0680624991655349
5.2890673828125,-2.254502058029175,0.084206998348236,1.188735008239746,-0.1354375034570694,0.2175250053405761,0.4126375019550323
5.32351025390625,-0.6854450106620789,-0.233705997467041,1.66280996799469,-0.0083875004202127,0.0991374999284744,0.5091624855995178
5.357952880859375,-0.0585130006074905,-0.2157829999923706,0.931414008140564,0.2664749920368194,0.2274249941110611,0.2684000134468078
5.39239599609375,-0.9668369889259338,-0.1999620050191879,-0.3024660050868988,0.2861374914646148,0.2432374954223632,0.2366375029087066
5.4268388671875,-0.418381005525589,-0.2234960049390792,-0.2425030022859573,0.1480875015258789,0.231000006198883,0.2941125035285949
5.46128173828125,-0.2664290070533752,-0.2431849986314773,0.7214059829711914,0.1174250021576881,0.2737624943256378,0.2646875083446502
5.495724609375,-0.6087740063667297,-0.1466879993677139,0.4255630075931549,0.2151875048875808,0.1687124967575073,0.291637510061264
5.530167724609375,0.2500140070915222,0.2039439976215362,-0.1212899982929229,0.1040875017642974,0.0331375002861022,0.232924997806549
5.564610595703125,0.111685000360012,0.4443219900131225,0.1617430001497268,0.1578499972820282,-0.0206249989569187,0.1035374999046325
5.599053466796875,0.09026800096035,0.5905870199203491,-0.4508329927921295,0.2774749994277954,-0.1111000031232833,0.0215875003486871
5.633496337890625,-0.5054649710655212,0.5773149728775024,-0.7897449731826782,0.2641375064849853,0.0184249989688396,0.0130624994635581
5.667939208984375,-0.5102419853210449,0.30000901222229,-1.1812429428100586,0.1528999954462051,-0.0706750005483627,0.101062498986721
5.7023818359375,-0.3514589965343475,0.0238320007920265,-0.5608119964599609,0.0307999998331069,-0.1159124970436096,0.0472999997437
5.7368251953125,-0.4739030003547668,-0.3375450074672699,-0.2273949980735778,0.1491875052452087,-0.0340999998152256,0.101062498986721
5.771267822265625,-0.0886920019984245,-0.2771370112895965,-1.00593900680542,0.0735625028610229,-0.0793375000357627,-0.0174624994397163
5.8057109375,-0.3170750141143799,-0.1817850023508072,-0.428056001663208,0.0295624993741512,0.0281875003129243,-0.1090374961495399
5.840153564453125,-0.5293830037117004,-0.0022430000826716,-0.970242977142334,0.0356125012040138,-0.1331000030040741,-0.0687500014901161
5.8745966796875,-0.1132770031690597,0.2032359987497329,-0.894225001335144,-0.085387498140335,-0.2796750068664551,-0.1274625062942505
5.909039306640625,-0.0947609990835189,0.2471749931573867,-0.9244430065155028,-0.0413874983787536,-0.1551000028848648,-0.2019875049591064
5.943482421875,-0.5044090151786804,0.4209249913692474,-1.362442970275879,-0.1464374959468841,-0.2197249978780746,-0.1860374957323074
5.977925048828125,-0.5962979793548584,0.2636950016021728,-0.4763799905776977,-0.2759625017642975,-0.4017750024795532,-0.1567499935626983
6.0123681640625,-0.450637012720108,0.2521159946918487,0.3242470026016235,-0.1414874941110611,-0.2186249941587448,-0.1970375031232834
6.04681103515625,-0.7102929949760437,0.3580470085144043,0.063738003373146,-0.0743874981999397,-0.3676750063896179,-0.1445125043392181
6.08125390625,-0.1696060001850128,0.6132199764251709,0.4537340104579925,-0.1011999994516372,-0.4592500030994415,-0.1567499935626983
6.11569677734375,0.2448920011520385,1.0537619590759275,0.9912149906158448,-0.085387498140335,-0.1244374960660934,-0.359562486410141
6.150139404296875,-1.6976959705352783,0.7166619896888733,0.7676519751548767,-0.2514874935150146,-0.0841500014066696,-0.1615625023841858
6.18458251953125,-0.650488018989563,-0.3048979938030243,1.2082970142364502,-0.2795374989509582,-0.3969624936580658,0.0838750004768371
6.219025390625,0.9455999732017516,-0.5070300102233887,1.1161439418792725,-0.0279124993830919,-0.1196250021457672,-0.1297999918460846
6.25346826171875,-0.4637179970741272,-0.605800986289978,-0.099210001528263,0.088137499988079,0.0038499999791383,-0.304562509059906
6.2879111328125,-0.6864950060844421,-0.5266320109367371,-0.4369989931583404,-0.2147749960422516,-0.1111000031232833,-0.189750000834465
6.32235400390625,0.2905310094356537,-0.9054759740829468,1.2104990482330322,-0.1317249983549118,0.0098999999463558,-0.157987505197525
6.356796875,0.4705060124397278,-0.7538170218467712,0.4746359884738922,0.086899995803833,0.111237496137619,-0.1750375032424926
6.39123974609375,0.8212950229644775,-0.6540589928627014,0.269906997680664,-0.234437495470047,0.055137500166893,-0.1652749925851822
6.425682861328125,1.0859500169754028,-0.8467109799385071,1.8359689712524412,-0.1610125005245208,-0.0365750007331371,-0.2080374956130981
6.460125732421875,0.3558590114116668,-0.6630480289459229,1.4015560150146484,0.1931875050067901,0.029424998909235,-0.2032250016927719
6.494568603515625,0.2625469863414764,-0.3304120004177093,-0.6113150119781494,0.0466125011444091,-0.052387498319149,-0.0699874982237815
6.529011474609375,0.9530159831047058,-0.1847929954528808,0.1453820019960403,-0.2747249901294708,-0.1208624988794326,-0.1262249946594238
6.563454345703125,-0.3855130076408386,-0.1258399933576584,1.2954299449920654,-0.002199999988079,-0.0303875003010034,-0.1615625023841858
6.59789697265625,-0.511014997959137,0.0722469985485076,-0.2203350067138672,0.1896124929189682,-0.0829124972224235,0.0631124973297119
6.632340087890625,0.2066369950771331,0.1563100069761276,-1.2847310304641724,-0.0791999995708465,-0.0926750004291534,0.0875874981284141
6.666782958984375,0.1936150044202804,0.1165070012211799,0.0302889999002218,-0.1464374959468841,0.0111375004053115,0.007012499962002
6.70122607421875,0.134552001953125,0.0553350001573562,0.253504991531372,0.1236125007271766,0.231000006198883,-0.0004124999977648
6.735668701171875,-0.0930569991469383,0.3576450049877167,-0.6546499729156494,-0.0499125011265277,0.2395250052213668,-0.0211750008165836
6.770111572265625,-0.3837260007858276,0.3593170046806335,0.3362399935722351,-0.1549624949693679,0.0648999959230423,0.0595375001430511
6.80455419921875,0.2143229991197586,0.2857570052146911,0.3137040138244629,0.0453750006854534,0.1821874976158142,0.1963499933481216
6.838997314453125,0.6130679845809937,0.4302670061588287,-0.7174929976463318,-0.0241999998688697,0.1491875052452087,0.1670625060796737
6.873440185546875,0.8021060228347778,0.291128009557724,-0.4076189994812011,-0.1574375033378601,0.086899995803833,0.1328250020742416
6.907883056640625,0.7789160013198853,0.2616919875144958,-0.1438799947500229,-0.0303875003010034,0.1149500012397766,0.1132999956607818
6.942326171875,0.6286969780921936,0.4881319999694824,-0.3184289932250976,0.0368499979376792,0.2237125039100647,0.1328250020742416
6.97676904296875,0.3658599853515625,0.4696219861507416,-0.4158470034599304,-0.0291499998420476,0.1296624988317489,0.1645874977111816
7.0112119140625,0.3606710135936737,0.3761509954929352,0.4367749989032745,-0.0241999998688697,0.083187498152256,0.2378749996423721
7.045654541015625,0.5271769762039185,0.5198889970779419,0.4204910099506378,0.1711875051259994,0.2004749923944473,0.2281125038862228
7.08009765625,0.2079239934682846,0.6883640289306641,-0.3620130121707916,-0.0389125011861324,0.2750000059604645,0.2134000062942505
7.114540283203125,-0.1802539974451065,0.4444949924945831,0.6630619764328003,-0.2417249977588653,0.0991374999284744,0.208587497472763
7.1489833984375,0.0937089994549751,0.0596910007297992,0.6813099980354309,-0.0987249985337257,0.1882375031709671,0.1583999991416931
7.18342626953125,0.141072005033493,0.1660629957914352,-0.1350599974393844,-0.1744875013828277,0.0917124971747398,0.0167750008404254
7.217869140625,0.3691850006580353,0.1900119930505752,0.8235899806022644,-0.0559624992311,0.1857624948024749,-0.0932250022888183
7.252311767578125,-0.4842079877853393,0.2394019961357116,-0.034035000950098,0.0735625028610229,0.1967625021934509,-0.0699874982237815
7.2867548828125,-0.8809210062026978,0.1537860035896301,0.3491359949111938,-0.0889625027775764,0.1467124968767166,0.0705375000834465
7.321197998046875,-0.9234110116958618,-0.4569019973278045,0.6978549957275391,0.0075624999590218,0.1321374922990799,0.2171124964952469
7.355640869140625,-0.5446249842643738,-0.8250790238380432,0.2452870011329651,0.0123749999329447,0.0379500016570091,0.2048749923706054
7.390083740234375,-0.3844600021839142,-0.962015986442566,0.1639280021190643,0.0771375000476837,0.0991374999284744,0.104774996638298
7.4245263671875,-0.7242630124092102,-0.7601109743118286,0.1808889955282211,-0.004674999974668,0.2359499931335449,-0.0162249989807605
7.458969482421875,-1.0722709894180298,-0.4089129865169525,1.1518759727478027,0.0698499977588653,0.0746624991297721,-0.0114124994724988
7.493412109375,-1.0248620510101318,-0.3681440055370331,0.6463829874992371,0.2237125039100647,0.1296624988317489,0.073012501001358
7.52785498046875,-1.3911609649658203,-0.0974289998412132,-0.2054709941148758,0.0991374999284744,-0.0596750006079673,0.0472999997437
7.5622978515625,-0.7586069703102112,0.2358260005712509,-0.4828979969024658,-0.002199999988079,-0.1989624947309494,0.1583999991416931
7.59674072265625,-0.1236739978194236,0.2394080013036728,0.0092019997537136,0.0625625029206276,-0.1391499936580658,0.0803000032901763
7.631183349609375,-0.1651359945535659,0.4284909963607788,-0.5360699892044067,0.272662490606308,-0.0413874983787536,0.0460624992847442
7.66562646484375,-0.5069100260734558,0.6333490014076233,-1.3729150295257568,0.0063249999657273,-0.0279124993830919,0.0827749967575073
7.700069091796875,-0.5677760243415833,0.2965719997882843,0.0662240013480186,-0.152487501502037,-0.1098624989390373,0.1303499937057495
7.73451220703125,-0.4788730144500732,0.172102004289627,0.659555971622467,0.0625625029206276,-0.1024374961853027,0.0741124972701072
7.768954833984375,-0.7835149765014648,0.311939001083374,-0.6083030104637146,0.0845625028014183,-0.052387498319149,0.0643500015139579
7.80339794921875,-0.6496549844741821,0.3635140061378479,-0.7271950244903564,-0.0339624993503093,-0.1721500009298324,-0.0114124994724988
7.837841064453125,-0.6134260296821594,0.2302320003509521,-0.456728994846344,0.0796125009655952,-0.1049124971032142,-0.0027499999850988
7.87228369140625,-0.3857209980487823,0.3905799984931946,-1.4751709699630735,0.0600874982774257,-0.081675000488758,0.0277750007808208
7.906726806640625,-0.3838289976119995,0.4983269870281219,-1.5051649808883667,-0.1512500047683715,-0.1440999954938888,0.0497750006616115
7.94116943359375,0.1190190017223358,0.4167770147323608,-0.5555610060691833,-0.1732500046491623,-0.0463375002145767,0.0008249999955296
7.975612548828125,-0.6918429732322693,0.3179650008678436,-0.5072450041770935,-0.128150001168251,-0.0780999958515167,0.0180124994367361
8.01005517578125,-0.1658480018377304,0.4649780094623565,-0.1568640023469925,-0.2074874937534332,-0.1868624985218048,0.1035374999046325
8.044498291015625,-0.1643670052289962,0.5312740206718445,0.6649060249328613,0.0185624994337558,-0.1843875050544738,-0.0332750007510185
8.07894091796875,-0.8073329925537109,0.959775984287262,-0.2107000052928924,0.2151875048875808,-0.2564375102519989,0.0435874983668327
8.113384033203126,0.0287970006465911,1.3148369789123535,-0.4705930054187774,0.1223749965429306,-0.1794375032186508,0.0631124973297119
8.14782666015625,0.0954499989748001,1.252753973007202,0.3166550099849701,-0.0681999996304512,-0.0340999998152256,-0.0516999997198581
8.182269775390624,-0.613647997379303,0.6270700097084045,0.8666530251502991,-0.2062499970197677,-0.0780999958515167,0.0765874981880188
8.216712646484375,0.3527010083198547,-0.2500970065593719,1.7775059938430786,-0.1989624947309494,-0.2259124964475631,0.0302499998360872
8.251155517578125,0.9525570273399352,-0.6278640031814575,1.5189100503921509,0.2396624982357025,-0.1611499935388565,-0.1359875053167343
8.285598388671875,0.5554879903793335,-0.952430009841919,-0.6367769837379456,0.2041874974966049,-0.1489125043153762,-0.1689874976873397
8.320041259765626,-0.0667010024189949,-0.9352329969406128,-0.7473739981651306,-0.1097249984741211,-0.1611499935388565,-0.2129874974489212
8.354484130859374,-0.0892750024795532,-1.2053409814834597,0.3542700111865997,-0.1073874980211258,-0.1196250021457672,-0.0602249987423419
8.388927001953125,1.0075149536132812,-0.96915602684021,0.1205120012164115,-0.152487501502037,0.0441375002264976,-0.1359875053167343
8.423369873046875,0.1311690062284469,-0.9866309762001038,1.2612169981002808,-0.2990624904632568,0.0563750006258487,-0.2275625020265579
8.457812744140625,-0.0060259997844696,-1.0081239938735962,2.14670205116272,-0.1121999993920326,-0.0841500014066696,-0.1995124965906143
8.492255615234376,0.3108659982681274,-0.5822259783744812,1.374047040939331,0.1051874980330467,-0.0731500014662742,-0.1225124970078468
8.543919677734374,-0.0099919997155666,-0.080774001777172,0.884086012840271,0.1248499974608421,-0.0083875004202127,-0.2349874973297119
8.578362548828125,-0.6087989807128906,0.1302620023488998,1.2093219757080078,0.2139499932527542,0.0807124972343444,0.0142999999225139
8.612805419921875,0.3088830113410949,-0.0327889993786811,0.5325509905815125,0.201712504029274,-0.0389125011861324,0.0790624991059303
8.64724853515625,0.3104099929332733,-0.0520519986748695,-0.0117739997804164,0.2689499855041504,0.0281875003129243,0.0362999998033046
8.681691162109376,-0.2102019935846328,0.0481470003724098,-0.8761410117149353,0.1186624988913536,0.147949993610382,0.1315875053405761
8.71613427734375,0.5697739720344543,9.69999964581e-05,-0.0874660015106201,-0.0169124994426965,0.1564749926328659,0.1058750003576278
8.750576904296874,0.6378129720687866,0.0438169986009597,-0.0596360005438327,0.0943249985575676,0.0246124994009733,-0.1187999993562698
8.785019775390625,-0.176824003458023,0.0983199998736381,-0.0250450000166893,0.2054249942302703,0.1186624988913536,-0.1115124970674514
8.819462890625,-0.0923959985375404,0.1380739957094192,-0.8391420245170593,-0.0071499999612569,0.1199000030755996,0.026537500321865
8.85390576171875,0.451101005077362,0.0968250036239624,0.0636390000581741,-0.0962499976158142,0.0819500014185905,-0.03575000166893
8.888348388671876,-0.2695919871330261,0.2528879940509796,0.4605529904365539,0.1088999956846237,0.1247124969959259,0.0155375003814697
8.92279150390625,0.2941260039806366,0.1551609933376312,-0.4943220019340515,0.1908500045537948,0.1577125042676925,0.1743499934673309
8.957234130859375,0.4654749929904938,0.2985799908638,-0.9460740089416504,0.1126125007867813,0.1699499934911728,0.0057749999687075
8.991677001953125,-0.4621529877185821,0.6185230016708374,-1.9750629663467407,-0.0901999995112419,0.5450500249862671,0.1903000026941299
9.0261201171875,-0.4095099866390228,0.3370479941368103,-0.3670490086078644,-0.3077250123023987,0.2639999985694885,0.3368749916553497
9.06056298828125,-0.1394679993391037,0.2206429988145828,0.5588819980621338,-0.0962499976158142,-0.0560999996960163,0.3856875002384186
9.095005859375,0.5016040205955505,0.5321210026741028,0.1018360033631324,0.0270875003188848,0.1014750003814697,0.3283500075340271
9.12944873046875,-0.0830480009317398,0.6795349717140198,-0.0993629992008209,-0.0901999995112419,0.222474992275238,0.4016374945640564
9.1638916015625,0.1898410022258758,0.442548006772995,1.0807089805603027,0.0197999998927116,0.0941874980926513,0.3918749988079071
9.19833447265625,-0.3268939852714538,0.3093250095844269,0.2842969894409179,-0.0156750008463859,0.1870000064373016,0.4199250042438507
9.23277734375,-0.2986379861831665,-0.1940010040998459,0.2887589931488037,-0.1720124930143356,0.3482874929904938,0.5286874771118164
9.26722021484375,0.5580790042877197,-0.2608610093593597,0.6938560009002686,-0.0926750004291534,-0.081675000488758,0.2928749918937683
9.301662841796874,-0.141075000166893,-0.0336319990456104,0.4700739979743957,0.1394249945878982,-0.0463375002145767,0.1058750003576278
9.336105712890625,-0.2739790081977844,-0.1648679971694946,-0.4159849882125854,0.1968999952077865,-0.170912504196167,0.1413500010967254
9.370548828125,-0.8335760235786438,-0.2954820096492767,-0.4070349931716919,0.038087498396635,0.3642374873161316,0.3148750066757202
9.40499169921875,-1.1572649478912354,-0.7294629812240601,0.310259997844696,-0.231962502002716,0.5058624744415283,0.4907374978065491
