seconds_elapsed,accel_x,accel_y,accel_z,gyro_x,gyro_y,gyro_z
0.216955078125,0.959999978542328,-0.3774999976158142,0.4869000017642975,0.2442588210105896,-0.3433760702610016,-0.1482308059930801
0.236806640625,0.959999978542328,-0.3774999976158142,0.4869000017642975,0.2442588210105896,-0.3433760702610016,-0.1482308059930801
0.25665966796875,-0.1916999965906143,0.5455999970436096,1.0988999605178833,0.2442588210105896,-0.3433760702610016,-0.1482308059930801
0.276512939453125,-0.4361999928951263,0.8000999689102173,1.2757999897003174,0.2442588210105896,-0.3433760702610016,-0.1482308059930801
0.2963642578125,0.2854000031948089,0.438400000333786,1.3137999773025513,0.2442588210105896,-0.3433760702610016,-0.1482308059930801
0.3162177734375,0.8136999607086182,0.5406000018119812,0.6166999936103821,0.2442588210105896,-0.3433760702610016,-0.1482308059930801
0.33607080078125,0.8762999773025513,0.4819999933242798,0.4879999756813049,0.2442588210105896,-0.3433760702610016,-0.1482308059930801
0.355923828125,0.6674000024795532,0.5475000143051147,0.4694999754428863,0.2442588210105896,-0.3433760702610016,-0.1482308059930801
0.375775390625,0.3913999795913696,0.6510999798774719,0.1677999943494796,0.2210459560155868,-0.391023576259613,-0.154339462518692
0.395628662109375,0.4773999750614166,0.3261999785900116,0.3050000071525574,0.1795071065425872,-0.3824714422225952,-0.1897696554660797
0.415481689453125,0.3800999820232391,0.2252999991178512,0.6450999975204468,0.2315004765987396,-0.3946712911128998,-0.2094046026468277
0.435333251953125,0.7037000060081482,0.1935999989509582,0.5782999992370605,0.3614576756954193,-0.3105813264846802,-0.2304532676935196
0.455186279296875,0.8596000075340271,0.2287999987602234,0.771399974822998,0.4694761037826538,-0.123674027621746,-0.2750464379787445
0.4750380859375,0.5600000023841858,0.4824999868869781,0.2583000063896179,0.5176821351051331,-0.044139377772808,-0.2793050408363342
0.49489111328125,-0.0419999994337558,0.6085999608039856,-0.8984999656677246,0.2410823255777359,0.0607025511562824,-0.1888795346021652
0.514744140625,-0.5932999849319458,0.175599992275238,-0.5169999599456787,-0.2563190460205078,0.1877799779176712,-0.0433365255594253
0.53459716796875,-0.5859999656677246,-0.6578999757766724,1.733299970626831,-0.6085090637207031,0.1393645405769348,0.1370781660079956
0.574302001953125,1.5679999589920044,-2.005499839782715,3.9347000122070312,0.002076941775158,-0.230959415435791,0.1091877967119216
0.594155029296875,1.7180999517440796,-1.7661999464035034,1.6691999435424805,0.5298121571540833,-0.0685565322637558,-0.040142573416233
0.614006591796875,1.3761999607086182,-1.2508000135421753,-0.8671999573707581,0.6749188303947449,0.0265988186001777,-0.131126582622528
0.63385986328125,1.1173999309539795,-0.7566999793052673,-2.520099878311157,0.393292486667633,-0.0749793425202369,-0.1333256959915161
0.65371142578125,0.9812999963760376,-0.482699990272522,-2.674299955368042,-0.0278554540127515,-0.2142915278673172,-0.0986983701586723
0.673564453125,0.9506999850273132,-0.3174999952316284,-1.539699912071228,-0.2548006176948547,-0.1161167547106742,-0.0244346093386411
0.69341748046875,0.9133999943733216,-0.5163999795913696,-0.0427999980747699,-0.174306035041809,0.0847357362508773,0.0783827379345893
0.713270751953125,0.7143999934196472,-0.5467999577522278,0.3907999992370605,0.0376467518508434,0.240052580833435,0.2432639896869659
0.733122314453125,0.8878999948501587,-0.7555999755859375,-0.1562999933958053,0.0568977333605289,0.2776993215084076,0.3734306395053863
0.752975341796875,1.073599934577942,-1.070599913597107,0.1880999952554702,-0.1349488645792007,0.1073901057243347,0.4208337962627411
0.772828369140625,1.5329999923706057,-1.2580000162124634,0.6182999610900879,-0.2509783506393432,-0.0652229562401771,0.3684913516044616
0.792679931640625,1.2990000247955322,-1.1108999252319336,1.1830999851226809,-0.2335948646068573,0.0296182371675968,0.2555510997772217
0.812533203125,0.6133999824523926,-0.939300000667572,1.452899932861328,-0.0980525985360145,0.0771086439490318,0.1890191584825515
0.832386474609375,0.2509999871253967,-0.6376999616622925,1.139799952507019,0.0296880509704351,0.0070511302910745,0.154304563999176
0.852239501953125,0.1063999980688095,-0.3696999847888946,0.3759999871253967,0.1142492517828941,-0.0724311619997024,0.1520705372095108
0.872091064453125,0.6434999704360962,-0.2203999906778335,-0.5978999733924866,0.1281595230102539,-0.067753680050373,0.1142841577529907
0.8919443359375,0.9738999605178832,-0.0416999980807304,-1.2304999828338623,0.0760614499449729,0.0846484676003456,0.003071779385209
0.91179736328125,0.7926999926567078,0.2786000072956085,-1.2347999811172483,0.000663225131575,0.2014982551336288,-0.0977558940649032
0.93164892578125,0.4301999807357788,0.5467000007629395,-1.0963000059127808,-0.1410749703645706,0.1477421224117279,-0.1230631619691848
0.951501953125,0.0321999974548816,0.7859999537467957,-0.5439000129699707,-0.2321113348007202,0.1010894700884819,-0.0886627286672592
0.971355224609375,-0.0540999993681907,0.7800999879837036,0.4069999754428863,-0.206612080335617,0.1277406513690948,0.0389557480812072
0.991206787109375,0.7346999645233154,0.5324000120162964,0.9538999795913696,-0.0055501470342278,0.1628392189741134,0.1003389805555343
1.011059814453125,0.8283999562263489,0.5823000073432922,0.3100999891757965,0.1640260368585586,0.2332458049058914,0.0602487660944461
1.030912841796875,0.2321999967098236,0.7203999757766724,-0.4653999805450439,0.143448606133461,0.2341533750295639,0.0590095818042755
1.05076611328125,-0.2175000011920929,0.6820999979972839,-0.3976999819278717,0.0268257111310958,0.1279675364494323,0.1073028445243835
1.07061767578125,-0.1454000025987625,0.5407999753952026,-0.2410999983549118,-0.0220784153789281,0.0213104709982872,0.1845685690641403
1.090470703125,0.2505999803543091,0.3109000027179718,-0.3425000011920929,0.0201585534960031,0.0779464021325111,0.2246587872505188
1.11032373046875,0.5552999973297119,0.1054999977350235,-0.7109000086784363,0.0618021078407764,0.2145358771085739,0.2197718620300293
1.13017529296875,0.6389999985694885,-0.066100001335144,-0.9404999613761902,-0.008656833320856,0.2699675261974334,0.1414938420057296
1.150028564453125,0.5801999568939209,-0.1072999984025955,-0.5877000093460083,-0.0856607630848884,0.2093347907066345,0.0490437522530555
1.169880126953125,0.2433999925851822,0.1386999934911728,-0.4458999931812286,-0.0836710855364799,0.1496794372797012,0.0007679448463022
1.189733154296875,0.0870999991893768,0.402099996805191,-0.587399959564209,-0.0647342652082443,0.1738696992397308,0.0010471974965184
1.209586181640625,0.1324999928474426,0.5913999676704407,-1.001099944114685,-0.0560599751770496,0.2234195917844772,0.0307527016848325
1.22943798828125,0.214599996805191,0.6988999843597412,-1.3056999444961548,-0.1228188201785087,0.2685538232326507,0.0557632707059383
1.249291015625,0.2876999974250793,0.8274999856948853,-1.2563999891281128,-0.2062106430530548,0.2638065218925476,0.0695862770080566
1.26914404296875,0.2213999927043914,1.0683000087738037,-0.9576999545097352,-0.2461088746786117,0.2326000332832336,0.0804073214530944
1.2889970703125,0.0015999999595806,1.3837999105453491,-0.8473999500274658,-0.2796541154384613,0.2348864078521728,0.1452462971210479
1.3088505859375,0.0618999972939491,1.49809992313385,-0.6601999998092651,-0.3215594589710235,0.2023883759975433,0.2294933497905731
1.328701904296875,0.531499981880188,1.4128999710083008,-0.5241999626159668,-0.3356268107891083,0.1771683692932129,0.2705260217189789
1.34855517578125,0.6401999592781067,1.417199969291687,-0.1626999974250793,-0.2900737226009369,0.1996656656265258,0.2640508711338043
1.368408203125,0.4883999824523926,1.490299940109253,-0.0227999985218048,-0.1546012610197067,0.2060884833335876,0.2875953614711761
1.388260009765625,0.620199978351593,1.4098999500274658,-0.049100000411272,-0.05159193277359,0.2971597611904144,0.329326182603836
1.408113037109375,0.6276999711990356,1.2210999727249146,-0.2049999982118606,-0.0200363788753747,0.2698802649974823,0.3084695041179657
1.427966064453125,0.6324999928474426,1.202299952507019,-0.2601999938488006,-0.0564439482986927,0.2263343036174774,0.2861641943454742
1.447819091796875,0.8039999604225159,1.0709999799728394,0.3001999855041504,-0.0259181391447782,0.2439272105693817,0.2515717446804046
1.4676689453125,0.8930000066757202,0.993299961090088,0.6961999535560608,0.1504299342632293,0.3366914689540863,0.2250078469514846
1.4875224609375,1.029099941253662,1.1181999444961548,0.3206999897956848,0.2915397882461548,0.4770683050155639,0.1814095228910446
1.50737548828125,0.9476999640464784,1.0698999166488647,-0.151199996471405,0.2362652271986007,0.6384589076042175,0.1006705909967422
1.527228515625,0.3125,1.031599998474121,0.1985999941825866,0.0233175978064537,0.7348883152008057,0.0404741838574409
1.547081787109375,-0.5945999622344971,0.8068000078201294,1.4469999074935913,-0.1948834657669067,0.6428745985031128,0.0316602736711502
1.566933349609375,-1.2218999862670898,0.5245000123977661,1.9048999547958372,-0.3416132926940918,0.4443259239196777,0.0888198018074035
1.586787841796875,-1.3773000240325928,0.3100000023841858,2.222399950027466,-0.3807784914970398,0.4224220514297485,0.1557531803846359
1.606637939453125,-0.9514999985694884,-0.3075000047683716,2.634899854660034,-0.2754129469394684,0.3155555129051208,0.2161939293146133
1.626490966796875,-0.1862999945878982,-0.7179999947547913,1.8080999851226809,-0.0634078085422515,0.0622035339474678,0.1500110477209091
1.64634423828125,0.1351999938488006,-0.6162999868392944,0.6003000140190125,0.0821002870798111,-0.0335626825690269,0.0606850981712341
1.666197265625,0.2199999988079071,-0.5782999992370605,-0.0789999961853027,0.2238384783267974,-0.0474904105067253,0.0143640600144863
1.686048828125,0.1388999968767166,-0.6234999895095825,-0.777999997138977,0.3071953952312469,0.0234921313822269,0.0031764991581439
1.70590185546875,-0.3100999891757965,-0.6732000112533569,-1.107100009918213,0.2871241271495819,0.0861843600869178,0.0126536367461085
1.725755126953125,-1.1098999977111816,-0.6599000096321106,-1.18149995803833,0.1780584901571273,0.0986983701586723,0.0999375507235527
1.745608154296875,-1.5885999202728271,-0.7940999865531921,-1.077399969100952,-0.0309970472007989,0.0600916855037212,0.2695835530757904
1.765459716796875,-1.2619999647140503,-1.2348999977111816,-0.2935999929904938,-0.2413266748189926,-0.0049392818473279,0.400186538696289
1.785312744140625,-0.69159996509552,-1.6080999374389648,0.8453999757766724,-0.3359758853912353,-0.0980351418256759,0.3858574032783508
1.805164306640625,-0.0780000016093254,-1.7359999418258667,1.5342999696731567,-0.2586752474308014,-0.2307325303554535,0.256336510181427
1.825017578125,0.5008000135421753,-1.570199966430664,1.413100004196167,-0.0588175952434539,-0.2559700012207031,0.014678219333291
1.84487060546875,0.1703999936580658,-0.9174000024795532,0.5803999900817871,0.1060811132192611,-0.2267880886793136,-0.2459692507982254
1.864723876953125,-0.8215999603271484,-0.1351999938488006,-0.2101999968290329,0.1626646816730499,-0.2134537696838379,-0.3752283453941345
1.8845751953125,-1.2711999416351318,0.3721999824047088,-0.505899965763092,0.181217536330223,-0.1281071603298187,-0.3340385556221008
1.9044287109375,-1.2167999744415283,0.4925999939441681,-0.7303000092506409,0.1903281509876251,-0.1691398620605468,-0.2457423508167266
1.92428173828125,-1.077199935913086,0.5898000001907349,-1.0813000202178955,0.114947386085987,-0.2653773128986358,-0.1904328763484954
1.944134765625,-1.0368999242782593,0.6207000017166138,-0.8596999645233154,0.0444360822439193,-0.316672533750534,-0.1412669420242309
1.963986328125,-0.9598999619483948,0.4767999947071075,-0.6922999620437622,0.0588175952434539,-0.2410125136375427,-0.0567057467997074
1.983839599609375,-1.1592999696731567,0.3290999829769134,-0.5521999597549438,0.0643153861165046,-0.1421047002077102,0.0402821972966194
2.003692626953125,-1.0825999975204468,0.003000000026077,-0.1950999945402145,0.0313635654747486,-0.2104343473911285,0.0917519554495811
2.023544189453125,-0.8552999496459961,-0.0622999966144561,-0.0762000009417533,0.003159045940265,-0.2667386829853058,0.0606501922011375
2.043397216796875,-1.1259000301361084,-0.0925999954342842,0.4520999789237976,0.0361806750297546,-0.2804394960403442,0.0118507854640483
2.06325048828125,-1.3163999319076538,0.0575999990105629,0.2671000063419342,0.1088387295603752,-0.2851693332195282,0.0075572757050395
2.08310205078125,-1.3794000148773191,0.145699992775917,-0.1570999920368194,0.1568701863288879,-0.2661627233028412,0.013421582058072
2.102955078125,-1.2231999635696411,0.2149000018835067,-0.5577999949455261,0.1878497898578643,-0.2619564533233642,-0.0309970472007989
2.12280810546875,-1.3292999267578125,0.4527999758720398,-1.1018999814987185,0.1544616371393203,-0.306828886270523,-0.0786096304655075
2.142659912109375,-1.4541999101638794,0.6796000003814697,-1.3355000019073486,0.1110902056097984,-0.313408762216568,-0.1313883811235427
2.162512939453125,-1.813099980354309,1.0490999221801758,-1.3357999324798584,0.120759330689907,-0.2611710727214813,-0.0971624776721
2.182365966796875,-1.6252999305725098,1.1901999711990356,-1.413100004196167,0.1391725540161132,-0.202213853597641,-0.0275936555117368
2.202217529296875,-1.2264000177383425,1.1798999309539795,-1.3314999341964722,0.0977558940649032,-0.1923876404762268,-0.0024609141983091
2.22207080078125,-0.8768999576568604,1.0490000247955322,-0.9878999590873718,0.011013027280569,-0.2115513533353805,-0.0207694172859191
2.261775390625,-0.2883999943733215,0.5460000038146973,1.1555999517440796,0.0808785557746887,-0.1531351953744888,-0.1506568193435669
2.301481689453125,-0.0215999986976385,0.4973999857902527,2.1963999271392822,0.4761956334114074,-0.4511850774288177,-0.2745577394962311
2.3213349609375,1.299299955368042,0.7524999976158142,1.4823999404907229,0.6323676705360413,-0.3710046410560608,-0.4480783641338348
2.341186279296875,1.1973999738693235,1.4990999698638916,0.9492999911308287,0.680835485458374,-0.0102101759985089,-0.6579192876815796
2.361039306640625,-0.3612000048160553,1.9036999940872192,0.8428999781608582,0.4365766644477844,0.3140196502208709,-0.6190857291221619
2.380892578125,-1.3155999183654783,1.1960999965667725,1.9417999982833865,-0.0402472913265228,0.2692694067955017,-0.3872536420822143
2.400745849609375,-1.2489999532699585,-0.1215999945998191,4.89109992980957,-0.3013485372066498,0.0241029970347881,-0.2112721055746078
2.420597412109375,-0.7121999859809875,-1.2640999555587769,6.76669979095459,0.16453218460083,-0.3120474219322204,-0.084997534751892
2.440450439453125,0.3619000017642975,-1.9378999471664429,4.288700103759766,0.938376247882843,-0.4438023269176483,-0.0249407552182674
2.460303466796875,1.240899920463562,-2.187000036239624,0.0955999940633773,1.317112684249878,-0.349694162607193,-0.1026253625750541
2.4801552734375,1.1237999200820925,-2.205199956893921,-3.1064999103546143,1.1695451736450195,-0.2586228847503662,-0.2312037646770477
2.5000068359375,0.5059999823570251,-2.048799991607666,-4.287399768829346,0.6821444630622864,-0.2413615882396698,-0.2920983135700226
2.519861328125,-0.0131999999284744,-1.916700005531311,-3.699599981307984,0.1838180720806121,-0.2805616855621338,-0.2806140482425689
2.539712890625,-0.3337999880313873,-1.7495999336242676,-2.112499952316284,-0.1023112013936042,-0.1408131569623947,-0.1851270794868469
2.559566162109375,-0.6013000011444092,-1.6323999166488647,-0.6532999873161316,-0.1531177312135696,0.0774402618408203,-0.0261624846607446
2.579417724609375,-0.4267999827861786,-1.751099944114685,0.3391999900341034,-0.0971624776721,0.1977109014987945,0.0983667597174644
2.599270751953125,-0.4799999892711639,-1.535099983215332,0.915399968624115,-0.0015009831404313,0.128944918513298,0.1625425070524215
2.619122314453125,-0.3353999853134155,-1.2366999387741089,0.6872999668121338,0.057560957968235,0.0072605698369443,0.2444508075714111
2.63897705078125,-0.1018999963998794,-0.9479999542236328,0.0139999995008111,0.0338942930102348,-0.0468271821737289,0.2875604331493377
2.658830078125,0.2159999907016754,-0.762999951839447,-0.3574000000953674,-0.0126885436475276,0.0264591909945011,0.3054151535034179
2.678681640625,0.2696000039577484,-0.6190999746322632,-0.410099983215332,-0.0350113064050674,0.1314407438039779,0.2697580754756927
2.69853466796875,0.0698999986052513,-0.334199994802475,-0.3770000040531158,-0.0326725617051124,0.1839751601219177,0.2389006614685058
2.718387939453125,-0.11769999563694,0.0575999990105629,-0.3533999919891357,-0.0502654835581779,0.1968905925750732,0.2612583339214325
2.738239501953125,-0.0995000004768371,0.2953000068664551,-0.380400002002716,-0.0949284583330154,0.2346944212913513,0.300615519285202
2.758092529296875,0.1858000010251999,0.334199994802475,-0.1763999909162521,-0.1460142433643341,0.3032160401344299,0.3274063169956207
2.777944091796875,0.2447999864816665,0.2638999819755554,0.2187999933958053,-0.1651779562234878,0.3182607889175415,0.3411071598529815
2.797797119140625,0.3540000021457672,0.0887999981641769,0.6710999608039856,-0.1160469427704811,0.2937389016151428,0.3581764698028564
2.81764892578125,0.3412999808788299,-0.1218999996781349,0.7450000047683716,0.0092851519584655,0.2904751598834991,0.3845832943916321
2.837501953125,0.4795999825000763,-0.2088999897241592,0.2930999994277954,0.1392423659563064,0.3504272103309631,0.4114439189434051
2.857356689453125,0.645799994468689,-0.3181999921798706,-0.4495999813079834,0.1403419226408004,0.3694862127304077,0.411356657743454
2.8772080078125,0.8440999984741211,-0.4181999862194061,-0.8977999687194824,0.0303861815482378,0.2916619777679443,0.3805865049362182
2.897059814453125,1.0414999723434448,-0.46069997549057,-0.974299967288971,-0.0733561888337135,0.2201383709907531,0.3474950492382049
2.916912841796875,1.3472999334335327,-0.4368000030517578,-1.0512999296188354,-0.1043357849121093,0.237120434641838,0.3059736788272857
2.93676611328125,1.296899914741516,-0.3097999989986419,-1.013399958610535,-0.0982096791267395,0.3704984784126282,0.2528807520866394
2.956617431640625,0.9996999502182008,-0.115399993956089,-0.7587999701499939,-0.0687136128544807,0.498134434223175,0.2463532239198684
2.976470947265625,1.0383999347686768,0.0242999996989965,-0.8828999996185303,-0.1050688177347183,0.5366189479827881,0.2718350291252136
2.996323974609375,1.3553999662399292,0.0128999995067715,-0.8626999855041504,-0.2848551869392395,0.4374318718910217,0.2460390627384185
3.016177001953125,1.628600001335144,0.1004000008106231,-0.349700003862381,-0.421584278345108,0.2938087284564972,0.1558229923248291
3.036030029296875,1.542799949645996,0.2606000006198883,0.2185999900102615,-0.3803072571754455,0.244764968752861,0.0853640511631965
3.0558818359375,1.327899932861328,0.5809000134468079,0.0755999982357025,-0.2339439392089843,0.3289945721626282,0.0628667622804641
3.07573486328125,1.2276999950408936,0.8858000040054321,-0.1895999908447265,-0.1460491567850113,0.3751410543918609,0.0597775280475616
3.09558642578125,1.0963000059127808,1.086899995803833,-0.4357999861240387,-0.1767669469118118,0.2122320383787155,0.0662701502442359
3.115439453125,1.3969999551773071,1.2044999599456787,-0.646399974822998,-0.2474702298641204,0.0667239353060722,0.0777369663119316
3.13529248046875,1.5633999109268188,1.2063000202178955,-0.4720999896526336,-0.2582214474678039,0.0867428630590438,0.045134212821722
3.155144287109375,1.4025999307632446,1.22979998588562,0.0546000003814697,-0.158353716135025,0.1804321408271789,0.036861352622509
3.174997314453125,1.1509000062942505,1.196499943733215,0.0131000000983476,-0.0157079640775918,0.2021963894367218,0.05574581772089
3.194850341796875,0.9697999954223632,1.0888999700546265,-0.348499983549118,0.0182037837803363,0.1905899494886398,0.0913854390382766
3.214703369140625,0.9991999864578248,0.8571999669075012,-0.2264999896287918,-0.0152890840545296,0.1545488983392715,0.1221904978156089
3.23455517578125,1.4702999591827393,0.6309999823570251,0.6079999804496765,-0.0166155342012643,0.1304459124803543,0.1299048513174057
3.254408203125,2.073499917984009,0.4148999750614166,1.3341000080108645,0.1278802752494812,0.1375668495893478,0.0301941968500614
3.27426123046875,2.0586998462677,0.6455999612808228,1.0534999370574951,0.2807711064815521,0.2544166445732116,-0.1178969889879226
3.313966064453125,-0.3488000035285949,1.0372999906539917,0.6527000069618225,-0.1514945775270462,0.2851518988609314,-0.1440245658159256
3.333819091796875,-0.8113999962806702,0.3084999918937683,1.3198999166488647,-0.4271518886089325,0.1430820971727371,-0.0751887857913971
3.353670654296875,-0.5493000149726868,-0.5981000065803528,2.724799871444702,-0.4781852960586548,0.0897971913218498,-0.0871268361806869
3.373523681640625,-0.44200000166893,-1.2592999935150146,3.0752999782562256,-0.2203652709722519,-0.1035678386688232,-0.153606429696083
3.393377197265625,-0.1859999895095825,-1.2868000268936155,1.72979998588562,0.0752935037016868,-0.1764178872108459,-0.2301565706729889
3.413230224609375,-0.0639000013470649,-1.2073999643325806,0.23259998857975,0.2330538183450698,-0.0526914894580841,-0.3271096050739288
3.43308154296875,-0.6074000000953674,-1.0067999362945557,-0.6014999747276306,0.2619215548038482,0.1098335683345794,-0.3978652656078338
3.452934814453125,-1.7522999048233032,-0.760699987411499,-1.0871999263763428,0.2061408311128616,0.1646369099617004,-0.3666762113571167
3.4727880859375,-2.957599878311157,-0.5343999862670898,-1.2038999795913696,0.0947539210319519,0.1541998386383056,-0.1569923609495163
3.49264111328125,-3.3285999298095703,-0.6841999888420105,-1.095099925994873,-0.0808087438344955,0.0858003869652748,0.1691573113203048
3.51249267578125,-2.5920000076293945,-1.3280999660491943,-0.7683999538421631,-0.2413790374994278,-0.0711047127842903,0.4357388913631439
3.532345703125,-1.236199975013733,-1.911099910736084,-0.7421000003814697,-0.34681436419487,-0.146328404545784,0.5158669948577881
3.552198974609375,-0.0697999969124794,-2.1407999992370605,-0.6000999808311462,-0.4068886041641235,-0.1067792400717735,0.4188266694545746
3.572050537109375,0.5726000070571899,-1.945199966430664,-0.1093999966979026,-0.391739159822464,-0.0496022589504718,0.1824916303157806
3.591903564453125,0.2160999923944473,-1.2675999402999878,-0.292600005865097,-0.328296422958374,-0.0229685325175523,-0.0615926682949066
3.611756591796875,-0.5067999958992004,-0.3917999863624573,-0.3516999781131744,-0.304629772901535,0.0832173004746437,-0.187046930193901
3.631608154296875,-1.1022000312805176,0.3146999776363373,-0.1319999992847442,-0.2875778973102569,0.1589645892381668,-0.1478817462921142
3.65146142578125,-0.9027000069618224,0.6251999735832214,0.0222999993711709,-0.3238807618618011,0.0218864288181066,-0.0742986649274826
3.671314453125,-0.5081999897956848,0.8424999713897705,0.0839999988675117,-0.4086339473724365,-0.1481784582138061,-0.031328659504652
3.69116748046875,-0.3044999837875366,0.9368000030517578,0.6662999987602234,-0.4126830995082855,-0.2158099561929702,-0.0043982295319437
3.71101904296875,-0.1938999891281128,0.9527999758720398,1.2775999307632446,-0.2006255984306335,-0.1778839528560638,0.0412944890558719
3.730872314453125,0.0763999968767166,0.8123999834060669,0.8669999837875366,0.0547160729765892,-0.0188844632357358,0.0938114449381828
3.750725341796875,-0.060199998319149,0.5859000086784363,0.0078999996185302,0.0946841090917587,-0.0006283185211941,0.085713118314743
3.770576904296875,-0.3007999956607818,0.4501999914646148,-0.1807999908924102,-0.0733561888337135,-0.1672374457120895,0.0587303303182125
3.790429931640625,-0.3632999956607818,0.2078000009059906,0.4192000031471252,-0.1769763827323913,-0.2960253059864044,0.0437379516661167
3.810283447265625,-0.2321999967098236,-0.0744000002741813,0.8037999868392944,-0.0889245271682739,-0.2687807083129883,0.0148003920912742
3.830134765625,-0.1823000013828277,-0.3227999806404114,0.7152999639511108,0.0773878991603851,-0.1982693970203399,-0.0383797883987426
3.849986328125,-0.2724999785423279,-0.4435999989509582,0.0813999995589256,0.164113312959671,-0.1922131031751632,-0.122574470937252
3.869841064453125,-0.7080000042915344,-0.2554999887943268,-0.4963999986648559,0.133988931775093,-0.2325302213430404,-0.1900139898061752
3.8896923828125,-0.7234999537467957,-0.1201999932527542,-0.4197999835014343,0.0495498962700367,-0.2322509586811065,-0.2198067605495453
3.909544189453125,-0.6578999757766724,-0.1068999990820884,-0.0848999992012977,0.0385368689894676,-0.2527236640453338,-0.2648362517356872
3.929397216796875,-0.8863999843597412,0.143899992108345,-0.1037999987602233,0.1429250091314315,-0.2988527119159698,-0.2851344347000122
3.94925048828125,-1.0820000171661377,0.4541999995708465,-0.8208000063896179,0.2287428528070449,-0.3288723826408386,-0.2312561273574829
3.969101806640625,-1.0708999633789062,0.796999990940094,-1.746500015258789,0.1493129134178161,-0.3163060247898102,-0.1562767773866653
3.988955078125,-0.7886999845504761,0.927299976348877,-1.5793999433517456,-0.026616271585226,-0.2953969836235046,-0.0985412895679473
4.008809814453125,-0.5758000016212463,0.8822999596595764,-0.7098999619483948,-0.1203055456280708,-0.3332880735397339,-0.0910538285970687
4.028661376953125,-0.5273999571800232,0.8930999636650085,0.0148999998345971,-0.0823097303509712,-0.3778812289237976,-0.1136732921004295
4.048512939453125,-0.8087999820709229,1.0341999530792236,0.5763999819755554,0.0489390306174755,-0.3873583674430847,-0.1344776153564453
4.06836767578125,-1.0705000162124634,1.1318999528884888,0.4327999949455261,0.2081828713417053,-0.4146378636360168,-0.104597583413124
4.088220703125,-0.9077000021934508,1.1908999681472778,0.0277999993413686,0.2794272005558014,-0.4034677743911743,-0.0897273793816566
4.108072265625,-0.7633999586105347,1.0504999160766602,-0.1154999956488609,0.2891661524772644,-0.397952526807785,-0.1423316001892089
4.127923828125,-0.8978999853134155,0.8885999917984009,0.0170999988913536,0.2956587672233581,-0.3631681203842163,-0.213558480143547
4.147778564453125,-1.0295000076293943,0.745199978351593,0.4059000015258789,0.375071257352829,-0.3433237075805664,-0.2664943337440491
4.167630126953125,-0.7408999800682068,0.8424999713897705,0.1939999908208847,0.4835783839225769,-0.3942349553108215,-0.3301464915275574
4.187483154296875,-0.5335999727249146,1.1065999269485474,-0.6152999997138977,0.505709171295166,-0.2777691483497619,-0.4484798014163971
4.207334716796875,-0.9910999536514282,1.6657999753952026,-0.8705999851226807,0.3544763624668121,0.0107337748631834,-0.4782376587390899
4.22718798828125,-1.7882999181747437,1.5728999376296997,-0.2800999879837036,-0.0001047197583829,0.1656841039657592,-0.3727674186229706
4.247041015625,-2.0548999309539795,0.8826999664306641,1.4076999425888062,-0.3564834892749786,0.1882861256599426,-0.1626123189926147
4.26689404296875,-1.8952999114990237,-0.1551999896764755,3.671499967575073,-0.4086513817310333,0.1622108966112136,0.0544019117951393
4.28674560546875,-0.8967999815940857,-1.1237999200820925,4.5381999015808105,-0.0956440418958664,0.0117984255775809,0.2353925555944442
4.30659716796875,0.5198999643325806,-1.685499906539917,3.4609999656677246,0.3484898805618286,-0.0058643063530325,0.2173109501600265
4.326450439453125,1.169600009918213,-1.775399923324585,1.2452999353408811,0.566149890422821,0.0365995541214942,0.0399156808853149
4.346303466796875,0.9101999998092652,-1.4615999460220337,-0.3425000011920929,0.5098804831504822,-0.0732514709234237,-0.1446703374385833
4.366156494140625,0.3931999802589416,-0.911899983882904,-1.1988999843597412,0.3415958285331726,-0.19463911652565,-0.1718800216913223
4.386009765625,0.524399995803833,-0.7445999979972839,-1.138399958610535,0.2518335580825805,-0.1468345522880554,-0.0999899134039878
4.405861328125,0.3727999925613403,-0.6010000109672546,-1.1546000242233276,0.2130872458219528,0.008517206646502,0.0435459651052951
4.425714599609375,0.5090000033378601,-0.7544999718666077,-1.1349999904632568,0.1284562349319458,0.062378067523241,0.2197544127702713
4.445567626953125,0.9510999917984008,-1.000999927520752,-0.7899999618530273,-0.0104545224457979,0.0291819050908088,0.3395363390445709
4.465419189453125,1.0717999935150146,-0.9781000018119812,-0.1835999935865402,-0.1060636565089225,-0.0199665669351816,0.4068711400032043
4.4852724609375,0.99099999666214,-1.095099925994873,0.4429999887943268,-0.1676737815141677,-0.0696211829781532,0.4822344779968261
4.50512548828125,0.9827999472618104,-1.3377000093460083,1.4071999788284302,-0.1077217236161232,-0.1175130158662796,0.4952371716499328
4.52497705078125,0.8473999500274658,-1.39329993724823,1.4258999824523926,0.0598647929728031,-0.1385616958141327,0.4907865822315216
4.544830078125,0.9243999719619752,-1.3592000007629397,0.7935000061988831,0.2056346982717514,-0.0547858849167823,0.443016916513443
4.564683349609375,0.7550999522209167,-1.2810999155044556,0.1055999994277954,0.2392671853303909,-0.0230208933353424,0.3219259679317474
4.584534912109375,0.4846999943256378,-1.013100028038025,-0.382999986410141,0.2014633566141128,-0.0449422262609005,0.1894729435443878
4.604387939453125,0.2228999882936477,-0.8276999592781067,-0.4139999747276306,0.1703615933656692,0.0075572757050395,0.0861669033765792
4.624240966796875,-0.1670999974012375,-0.6083999872207642,-0.5069999694824219,0.1887399107217788,0.1311614960432052,0.0317300856113433
4.644092529296875,-0.5209000110626221,-0.4320999979972839,-0.7756999731063843,0.1982868611812591,0.2332458049058914,0.0519759058952331
4.66394580078125,-0.378600001335144,-0.3653999865055084,-1.3282999992370603,0.1038645431399345,0.2545039057731628,0.1192583441734314
4.683798828125,0.1037999987602233,-0.3901999890804291,-1.2034000158309937,-0.0856782123446464,0.3082775175571441,0.1235693097114563
4.70365185546875,0.0753999948501586,-0.3436000049114227,0.1482999920845031,-0.1404466480016708,0.3445105254650116,0.0688357874751091
4.72350341796875,-0.2256999909877777,-0.0625,0.5338999629020691,-0.0354301854968071,0.3250850141048431,0.1211258471012115
4.743356689453125,0.0041999998502433,0.1123999953269958,0.0376999974250793,0.0227067340165376,0.3624525368213653,0.1913928091526031
4.763209716796875,-0.0700999945402145,0.2773000001907348,-0.3152999877929687,-0.0481885410845279,0.3907094001770019,0.2510830760002136
4.783061279296875,0.0703999996185302,0.4052000045776367,-0.1158000007271766,-0.1426283121109008,0.3761184513568878,0.328226625919342
4.802914306640625,0.7795999646186829,0.4117999970912933,0.5162999629974365,-0.1530653685331344,0.3170216083526611,0.3510904312133789
4.822767578125,1.0744999647140503,0.5376999974250793,0.8143999576568604,-0.0554316565394401,0.2337170392274856,0.309743583202362
4.842620849609375,1.2999999523162842,0.7739999890327454,0.4357999861240387,0.089867003262043,0.2374869436025619,0.2900038957595825
4.86247216796875,1.4002000093460083,0.7006999850273132,-0.2818999886512756,0.1742536723613739,0.287996768951416,0.2748893499374389
4.8823251953125,1.3629000186920166,0.553600013256073,-1.0893999338150024,0.1327672004699707,0.3127281069755554,0.2691297829151153
4.902177001953125,1.507699966430664,0.2258999943733215,-1.1447999477386477,-0.0316428206861019,0.2554638385772705,0.2529680132865906
4.922030029296875,1.8082000017166135,-0.2198999971151352,-0.6769999861717224,-0.1223999410867691,0.1590344011783599,0.199334055185318
4.94188330078125,1.9704999923706052,-0.522599995136261,-0.4632000029087066,-0.101717785000801,0.1276010274887085,0.1464854776859283
4.961736328125,2.16159987449646,-0.7501999735832214,-0.894599974155426,-0.0575784109532833,0.1557706296443939,0.054489180445671
4.981588134765625,2.101099967956543,-0.769599974155426,-1.3609999418258667,-0.0616799369454383,0.2500358819961548,-0.0263195652514696
5.001441162109375,2.0837998390197754,-0.7001000046730042,-1.837299942970276,-0.1940282583236694,0.2545737326145172,-0.1073901057243347
5.021294189453125,1.9375,-0.4703999757766723,-1.4824999570846558,-0.4550946056842804,0.1197295859456062,-0.2288301140069961
5.041145751953125,1.3868999481201172,-0.0775000005960464,-0.6125999689102173,-0.5863433480262756,0.0036826448049396,-0.2683967351913452
5.0609990234375,1.2803000211715698,0.1131999939680099,0.118099994957447,-0.4900535345077514,0.0616799369454383,-0.2221280485391616
5.08085205078125,1.4634000062942505,0.2778999805450439,0.2901999950408935,-0.3014707267284393,0.1757022887468338,-0.2078338116407394
5.100705078125,1.409999966621399,0.5078999996185303,-0.1669999957084655,-0.2344151735305786,0.1666963994503021,-0.2356019914150238
5.120556640625,0.9355999827384948,0.8147000074386597,-0.23539999127388,-0.3142988979816437,0.0604756586253643,-0.278153121471405
5.14040966796875,0.4560000002384186,1.0181999206542969,0.4145999848842621,-0.3310365974903106,-0.0278554540127515,-0.2533170878887176
5.160262939453125,0.5371999740600586,1.0972999334335327,0.8374999761581421,-0.1876228898763656,0.0147480322048068,-0.1977632641792297
5.180114501953125,0.944700002670288,1.2289999723434448,0.8906999826431274,-0.0025481807533651,0.1417207419872284,-0.199718028306961
5.199966064453125,0.590399980545044,1.4651999473571775,0.382099986076355,0.0626922249794006,0.2096838504076004,-0.2417630106210708
5.219820556640625,0.0067999996244907,1.6018999814987185,-0.0319999977946281,-0.0329867228865623,0.2099456489086151,-0.2134537696838379
5.239673828125,-0.8139999508857727,1.451200008392334,0.2717999815940857,-0.2452013045549392,0.2091951668262481,-0.1187696531414985
5.259525390625,-1.0935999155044556,0.8567000031471252,0.5582000017166138,-0.4147600531578064,0.123272605240345,0.0457276254892349
5.27937841796875,-0.2547000050544739,-0.2974999845027923,1.143899917602539,-0.5299168825149536,0.1737126260995865,0.08916886895895
5.29922998046875,0.0405999980866909,-1.2249000072479248,2.2702999114990234,-0.4319340884685516,0.17615607380867,-0.0569849982857704
5.319083251953125,0.0838999971747398,-1.1373999118804932,1.9440999031066892,-0.1620887219905853,0.1313709318637848,-0.2108532190322876
5.338936279296875,0.3470000028610229,-0.8603999614715576,0.9620999693870544,-0.039043016731739,0.1625425070524215,-0.3340036571025848
5.35878955078125,0.1251000016927719,-0.6033999919891357,0.402099996805191,-0.0363203026354312,0.1056971400976181,-0.4496491849422455
5.378640869140625,-0.5095999836921692,-0.2467999905347824,0.1162000000476837,-0.0255516208708286,0.1185951232910156,-0.4827231764793396
5.398494384765625,-1.4625999927520752,0.1578999906778335,0.1061000004410743,0.0224100276827812,0.3128851652145386,-0.3601312339305877
5.418347412109375,-2.310999870300293,0.2289000004529953,0.2601999938488006,0.0383274294435977,0.3614926040172577,-0.1182460561394691
5.43819873046875,-2.5799999237060547,-0.0107999993488192,0.387499988079071,-0.0247138626873493,0.2029817849397659,0.1517214775085449
5.458052001953125,-1.9169999361038208,-0.5679000020027161,0.566100001335144,-0.0504400134086608,-0.0034208453726023,0.3774972558021545
5.4779052734375,-0.8865000009536743,-1.1638000011444092,0.3559999763965606,-0.0054454272612929,-0.09550441801548,0.4435579776763916
5.4977568359375,-0.1521999984979629,-1.3859999179840088,-0.3525999784469604,0.0254992600530385,-0.0651007816195488,0.3550697863101959
5.51760986328125,0.0154999997466802,-1.3761999607086182,-0.5385000109672546,-0.0116587989032268,0.0869173929095268,0.1751088798046112
5.537462890625,-0.5205999612808228,-1.0816999673843384,-0.3127999901771545,-0.063913956284523,0.1677086800336837,0.002565633971244
5.557314453125,-1.107200026512146,-0.6078999638557434,0.145699992775917,-0.1115439906716346,0.1927890628576278,-0.1059589385986328
5.577167724609375,-1.4160000085830688,-0.1333999931812286,0.8071999549865723,-0.0667413920164108,0.1814618855714798,-0.1660157144069671
5.597020751953125,-1.817699909210205,0.4133999943733215,0.8445000052452087,0.0963770821690559,0.1595230996608734,-0.1206720620393753
5.616872314453125,-1.524500012397766,0.7239999771118164,-0.0379000008106231,0.1813047975301742,0.1512153297662735,0.0157079640775918
5.636725341796875,-0.8392999768257141,0.7310999631881714,-0.7562999725341797,0.112748272716999,0.0267209913581609,0.0874933525919914
5.65657861328125,-0.4368999898433685,0.8466999530792236,-1.041100025177002,-0.0434936061501503,-0.1251401007175445,0.1080184280872345
5.67643017578125,-0.3770999908447265,0.8718999624252319,-0.536899983882904,-0.1399230509996414,-0.1128878965973854,0.1442689150571823
5.696283203125,-0.1904999911785125,0.7270999550819397,0.3914999961853027,-0.0508414395153522,0.0035779250320047,0.1998751014471054
5.71613623046875,-0.0267999991774559,0.4181999862194061,0.7409999966621399,0.1381951719522476,0.0016929693520069,0.2434210628271103
5.735989501953125,0.0151999993249773,0.2020999938249588,-0.003000000026077,0.2347816973924636,-0.0669857338070869,0.2433163523674011
5.755841064453125,-0.210099995136261,0.1059999987483024,-0.6722999811172485,0.1556833684444427,-0.1037772744894027,0.24186772108078
5.775694091796875,-0.2852999866008758,-0.122699998319149,-0.4655999839305877,0.0157254170626401,-0.1629613935947418,0.2479240149259567
5.795545654296875,-0.0970999971032142,-0.4438999891281128,-0.0551999993622303,-0.0220435075461864,-0.2315179258584976,0.2280796319246292
5.81539892578125,0.1096000000834465,-0.5615999698638916,-0.0410999990999698,0.01977458037436,-0.2174331247806549,0.1609019041061401
5.835251953125,0.0199999995529651,-0.5676000118255615,-0.0135999992489814,0.0684867203235626,-0.2466673851013183,0.0580671057105064
5.85510498046875,-0.1647000014781952,-0.3452000021934509,-0.4236999750137329,0.0944572165608406,-0.2957634925842285,-0.0347320511937141
5.87495654296875,-0.4587000012397766,-0.0379000008106231,-0.8125,0.0861319974064827,-0.2736327052116394,-0.0820828378200531
5.8948095703125,-0.5486999750137329,0.1731999963521957,-1.0444999933242798,0.0209090448915958,-0.264330118894577,-0.1100779175758361
5.9146630859375,-0.5170999765396118,0.4059999883174896,-0.4770999848842621,0.0028448866214603,-0.2249729335308075,-0.1700648814439773
5.934514404296875,-0.708899974822998,0.6523000001907349,-0.0184000004082918,0.0969530418515205,-0.237818568944931,-0.2072054892778396
5.954367431640625,-1.0958999395370483,0.9407999515533448,-0.1403999924659729,0.191043734550476,-0.2596526443958282,-0.1818458586931228
5.974220703125,-1.2335000038146973,1.1431999206542969,-0.3527999818325043,0.2427403926849365,-0.3038269281387329,-0.1157153323292732
5.994073974609375,-1.0307999849319458,1.2666000127792358,-0.7276999950408936,0.2172934859991073,-0.3107035160064697,-0.060458205640316
6.013925537109375,-0.7354999780654907,1.295699954032898,-0.3488999903202057,0.1512502282857895,-0.330041766166687,-0.047054074704647
6.033778564453125,-0.4936999976634979,1.277400016784668,0.4167999923229217,0.1536762416362762,-0.4244117140769958,-0.0638615936040878
6.053631591796875,-0.5026999711990356,1.2098000049591064,0.957099974155426,0.2788163423538208,-0.4899488389492035,-0.0770562887191772
6.0734833984375,-0.1298999935388565,1.041599988937378,0.723800003528595,0.4154930710792541,-0.447415143251419,-0.0681027472019195
6.09333642578125,0.4359000027179718,0.9375999569892884,0.7387999892234802,0.478167861700058,-0.449945867061615,-0.1384569704532623
6.113189453125,0.7820999622344971,0.9699999690055848,0.3878999948501587,0.5112767219543457,-0.5471258163452148,-0.2702293395996094
6.133041015625,0.7310000061988831,1.3008999824523926,-0.488099992275238,0.4034677743911743,-0.4788834452629089,-0.3797138333320617
6.152894287109375,0.0259999986737966,1.1993999481201172,-0.4406999945640564,0.1210385859012603,-0.2452885657548904,-0.4517784714698791
6.172747314453125,-0.8567000031471252,0.7938999533653259,1.2776999473571775,-0.1879545003175735,0.033789575099945,-0.3741636872291565
6.192600341796875,-1.2664999961853027,-0.0962999984622001,3.1538000106811523,-0.3199537694454193,0.0007679448463022,-0.2593559324741363
6.212451904296875,-0.7023999691009521,-1.2272999286651611,4.841099739074707,-0.1548456102609634,-0.2135759443044662,-0.2150420099496841
6.232303466796875,0.0551999993622303,-1.9155999422073364,4.091300010681152,0.3725928962230682,-0.3603581190109253,-0.3210358619689941
6.25215673828125,0.1888999938964843,-1.8032000064849851,0.760699987411499,0.7910355925559998,-0.3115063607692718,-0.4584456384181976
6.272009765625,-0.1357000023126602,-1.5667999982833862,-1.784999966621399,0.8211948871612549,-0.2328094691038131,-0.5201081037521362
6.29186279296875,-0.3798999786376953,-1.4984999895095823,-2.9487998485565186,0.6081076264381409,-0.4210083186626434,-0.5003858804702759
6.31171435546875,-0.28329998254776,-1.2924000024795532,-3.392899990081787,0.2858151197433471,-0.565015435218811,-0.4409225285053253
6.331567626953125,-0.3051999807357788,-0.8799999952316284,-2.8640999794006348,0.0256912466138601,-0.4305552840232849,-0.3118205368518829
6.351420654296875,-0.5227999687194824,-0.7179999947547913,-1.919399976730347,-0.0981224104762077,-0.3167423605918884,-0.1145110502839088
6.371273681640625,-0.671999990940094,-0.505299985408783,-1.6733999252319336,-0.194621667265892,-0.1846907436847686,0.143815129995346
6.391125244140625,-0.4812999963760376,-0.6186999678611755,-1.1527999639511108,-0.3102846443653106,0.0137357413768768,0.3915297091007232
6.410978515625,0.1011999994516372,-1.093400001525879,0.2187999933958053,-0.4113915562629699,0.194656565785408,0.5174726843833923
6.430830078125,0.1537999957799911,-1.333799958229065,1.6584999561309814,-0.3541447520256042,0.2126160115003585,0.4927064478397369
6.450684814453125,-0.2578999996185303,-1.2793999910354614,2.005499839782715,-0.1979028880596161,0.1222952231764793,0.4697553813457489
6.470536376953125,-0.3489999771118164,-1.104300022125244,1.8285999298095703,-0.0116762528195977,0.1072853878140449,0.4519704580307007
6.490387939453125,-0.430899977684021,-0.8138999938964844,0.9827999472618104,0.1684242784976959,0.1606750041246414,0.4395611584186554
6.51024267578125,-0.2769999802112579,-0.4366999864578247,-0.1405999958515167,0.2178694456815719,0.1776221543550491,0.4425631463527679
6.53009423828125,0.4183999896049499,-0.3522000014781952,-0.2983999848365783,0.1596627235412597,0.2079036235809326,0.3766420483589172
6.549945556640625,0.8208999633789062,-0.2777999937534332,-0.1480000019073486,0.2047271132469177,0.2800206243991852,0.2605951130390167
6.569800537109375,0.7559999823570251,0.0625,-0.3759999871253967,0.2561794221401214,0.4019493162631988,0.1706932038068771
6.589652099609375,0.0436999984085559,0.5306000113487244,-0.7365999817848206,0.2333330661058426,0.5336344242095947,0.2099456489086151
6.609505126953125,-0.2971999943256378,0.8454999923706055,-0.6383000016212463,0.0820479243993759,0.5126380920410156,0.3511951565742492
6.629358154296875,-0.2439000010490417,0.7841999530792236,0.0148999998345971,-0.1057320460677146,0.3586477041244507,0.5349434018135071
6.64921142578125,0.3926999866962433,0.3137999773025512,0.6211999654769897,-0.2363873869180679,0.1437453180551529,0.6700493693351746
6.66906298828125,1.2250999212265017,-0.2708999812602997,1.1761000156402588,-0.2838777899742126,0.0274016689509153,0.6632949113845825
6.688916015625,1.3424999713897705,-0.4151999950408935,1.4620999097824097,-0.1558229923248291,0.1057669520378112,0.5644918084144592
6.70876904296875,0.8359000086784363,-0.3064999878406524,0.8970999717712402,0.0657814592123031,0.3318045437335968,0.5527108907699585
6.72862060546875,0.8693000078201294,-0.363099992275238,0.116699993610382,0.1732588410377502,0.4077787101268768,0.5787686109542847
6.748473876953125,1.295199990272522,-0.663599967956543,-0.5360999703407288,0.1822647303342819,0.2726029753684997,0.4602433145046234
6.768326904296875,1.2870999574661257,-0.4074999988079071,-1.4126999378204346,0.0806865692138671,0.2090380787849426,0.2762157917022705
6.788178466796875,0.8639000058174133,-0.0368999987840652,-1.6710000038146973,-0.0727453231811523,0.2823069989681244,0.1862091720104217
6.808030029296875,0.7754999995231628,0.0648999959230423,-0.9929999709129332,-0.152541771531105,0.4104316234588623,0.1654397547245025
6.82788330078125,0.446399986743927,0.2194999903440475,-0.4796999990940094,-0.1295557916164398,0.4011988341808319,0.1615825742483139
6.847736328125,0.204599991440773,0.4580999910831451,-0.4244999885559082,-0.0861494541168212,0.3708824515342712,0.2130872458219528
6.86758935546875,0.4235000014305115,0.4536999762058258,-0.3254999816417694,-0.0035953782498836,0.3687357008457184,0.2913652658462524
6.88744091796875,0.6542999744415283,0.5428000092506409,-0.6006999611854553,0.0384845100343227,0.4205719828605652,0.3555584847927093
6.907294189453125,0.7013999819755554,0.5263999700546265,-0.7245000004768372,-0.0224100276827812,0.4310439527034759,0.4272216856479645
6.927147216796875,0.8806999921798706,0.3826999962329864,-0.5105999708175659,-0.1181587874889373,0.322501927614212,0.4391422867774963
6.946998779296875,1.0304999351501465,0.4512999951839447,-0.2074999958276748,-0.1628043055534362,0.2643824815750122,0.4384441673755646
6.966851806640625,1.0429999828338623,0.4980999827384949,-0.0948999971151351,-0.1347917765378952,0.2670877277851105,0.4510803520679474
6.986705322265625,0.7708999514579773,0.6195999979972839,-0.1075999960303306,-0.0620813630521297,0.3167248964309692,0.4682892858982086
7.006558349609375,0.6031999588012695,0.7267000079154968,-0.7204999923706055,-0.0382750704884529,0.3234967887401581,0.5082224011421204
7.026409912109375,0.6983000040054321,0.7515000104904175,-0.9389999508857728,-0.1346870511770248,0.3684389889240265,0.5175075531005859
7.046262939453125,0.7906999588012695,0.6653000116348267,-0.2149999886751175,-0.2282367050647735,0.3709173798561096,0.506389856338501
7.0661162109375,0.9828999638557434,0.5756999850273132,0.7847999930381775,-0.1632580906152725,0.3208962380886078,0.461918830871582
7.0859677734375,0.9550999999046326,0.896399974822998,0.7315999865531921,0.0223227608948946,0.2472258806228637,0.4242371916770935
7.10582080078125,0.5552999973297119,1.420300006866455,-0.3242999911308288,0.1074599251151084,0.3448421657085418,0.4911007285118103
7.125673828125,0.1367999911308288,1.3698999881744385,-0.685699999332428,-0.0165108144283294,0.4899488389492035,0.6546031832695007
7.185231689453125,0.148499995470047,-0.4327999949455261,1.9143999814987185,-0.3636044561862945,0.343899667263031,0.6678327918052673
7.205084716796875,-0.548799991607666,-0.6654999852180481,2.647899866104126,-0.209544226527214,0.39976766705513,0.673330545425415
7.224936279296875,0.0681999996304512,-1.3070999383926392,2.6401000022888184,0.0020594885572791,0.2670702934265136,0.6685134768486023
7.24478955078125,0.9077999591827391,-1.6518999338150024,1.5619999170303345,0.1933999359607696,-0.0214326437562704,0.4744852185249328
7.264642578125,1.007599949836731,-1.529099941253662,0.0781999975442886,0.265499472618103,-0.1668011099100113,0.2178694456815719
7.284494140625,0.8003000020980835,-1.2216999530792236,-0.6733999848365784,0.2961998283863067,-0.0015882495790719,0.050387654453516
7.30434716796875,0.2052000015974044,-0.8898999691009521,-1.098399996757507,0.3211231231689453,0.1600815951824188,-0.0127059966325759
7.324200439453125,-0.9047999978065492,-0.5133999586105347,-1.9912999868392944,0.1859997361898422,0.2964965403079986,0.0663748681545257
7.344052001953125,-1.6941999197006226,-0.437199980020523,-2.052500009536743,-0.1431344449520111,0.3710570037364959,0.2928313314914703
7.363905029296875,-1.3044999837875366,-1.0692999362945557,-0.3000999987125397,-0.4623900651931762,0.2562666833400726,0.4519529938697815
7.383758056640625,-0.4973999857902527,-1.577399969100952,1.638700008392334,-0.4533667266368866,0.1372526884078979,0.4309915900230407
7.403611572265625,-0.2180999964475631,-1.5273000001907349,1.7840999364852903,-0.1898045539855957,0.1807288378477096,0.34431853890419
7.423462890625,0.0082000000402331,-1.3166999816894531,0.6685999631881714,-0.0284314136952161,0.1865931451320648,0.2009397596120834
7.44331591796875,-0.0650999993085861,-0.9770999550819396,-0.3540999889373779,-0.0910014659166336,0.2138726413249969,0.0196349546313285
7.463169189453125,-0.7452999949455261,-0.5870000123977661,-0.1464999914169311,-0.1915847957134246,0.2704213261604309,-0.1184554994106292
7.4830224609375,-1.687399983406067,-0.0609999969601631,0.1999000012874603,-0.2304707318544387,0.265499472618103,-0.1050164625048637
7.5028740234375,-1.7388999462127686,0.0892999991774559,0.9553999900817872,-0.2021963894367218,0.3258005976676941,0.011013027280569
7.52272705078125,-1.504899978637695,-0.0010999999940395,1.302299976348877,-0.0897273793816566,0.2610139846801758,0.1091877967119216
7.542580078125,-1.0649999380111694,0.0054999999701976,0.8447999954223633,-0.042219515889883,0.1754055917263031,0.1742536723613739
7.562431640625,-0.6847999691963196,-0.192900002002716,0.8223999738693237,-0.0138928210362792,0.1597848981618881,0.1795420199632644
7.582284912109375,-0.7001000046730042,-0.2101999968290329,0.557200014591217,0.0531452745199203,0.2325476706027984,0.1872214674949646
7.602137939453125,-0.7422999739646912,-0.2689000070095062,0.3375000059604645,0.0584510751068592,0.2687981426715851,0.2060710191726684
7.621989501953125,-0.7601000070571899,-0.3583000004291534,0.2658999860286712,0.0290771853178739,0.1631708294153213,0.1816887706518173
7.641842529296875,-0.7748000025749207,-0.2854999899864197,0.1124999970197677,0.0247313156723976,0.1410051435232162,0.1722116321325302
7.6616943359375,-0.655299961566925,-0.39819997549057,0.1350999921560287,0.0472286082804203,0.1880941390991211,0.1730319410562515
7.68154736328125,-0.3894999921321869,-0.4174000024795532,-0.1826999932527542,0.0385194160044193,0.1627170443534851,0.1286482214927673
7.721251953125,-0.5575999617576599,-0.1243999972939491,-0.4202999770641327,0.0344353467226028,0.1008276715874672,0.0954346060752868
7.741106689453125,-0.4681999981403351,-0.032600000500679,-0.6322999596595764,-0.0026878069620579,0.1099208369851112,0.1088038235902786
7.760958251953125,-0.3980000019073486,-0.0128999995067715,-0.435399979352951,-0.039601519703865,0.1072679385542869,0.1316850930452346
7.780809814453125,-0.4575999975204468,0.0225999988615512,-0.4574999809265136,-0.0580845586955547,0.0715061426162719,0.1663822382688522
7.800662841796875,-0.3206000030040741,-0.0565999969840049,-0.4617999792098999,-0.1153139024972915,0.0093200579285621,0.1852143406867981
7.82051611328125,-0.4510999917984009,-0.047699999064207,-0.1383000016212463,-0.176836758852005,-0.07370525598526,0.1960528343915939
7.84036767578125,-0.4008999764919281,-0.243599995970726,0.7379999756813049,-0.2009222954511642,-0.1638689637184143,0.2042558789253235
7.860220703125,0.2599999904632568,-0.3369999825954437,0.6308000087738037,-0.0156730562448501,-0.1858251988887787,0.1381428092718124
7.88007373046875,-0.5480999946594238,0.2434999942779541,-0.745199978351593,0.1476897597312927,0.0291644521057605,0.0930958613753318
7.899927001953125,-0.8240999579429626,-0.0280999988317489,-0.5758000016212463,-0.0200538337230682,0.2531076371669769,0.159453272819519
7.9197802734375,-1.04639995098114,0.1310999989509582,-0.0947000011801719,-0.1912880837917328,-0.0481710880994796,0.1677435934543609
7.959483154296875,-0.5012999773025513,0.1818999946117401,0.5458999872207642,-0.0515046678483486,-0.0600393265485763,0.2028945237398147
