seconds_elapsed,accel_x,accel_y,accel_z,gyro_x,gyro_y,gyro_z
0.213970703125,1.1726999282836914,-0.3342999815940857,0.0694999992847442,0.0671079084277153,-0.0501607619225978,0.2427054792642593
0.233820556640625,0.0549999997019767,-0.1625999957323074,-0.2773000001907348,0.0671079084277153,-0.0501607619225978,0.2427054792642593
0.253673828125,-0.1867999881505966,-0.1243999972939491,-0.4526000022888183,0.0671079084277153,-0.0501607619225978,0.2427054792642593
0.27352685546875,-0.0082000000402331,-0.2671999931335449,-0.1898999959230423,0.0671079084277153,-0.0501607619225978,0.2427054792642593
0.293380126953125,0.1578999906778335,-0.3035999834537506,0.550000011920929,0.0671079084277153,-0.0501607619225978,0.2427054792642593
0.3132314453125,0.2884999811649322,-0.3375999927520752,0.7283999919891357,0.0671079084277153,-0.0501607619225978,0.2427054792642593
0.3330849609375,0.4458999931812286,-0.2967000007629394,0.1472999900579452,0.0671079084277153,-0.0501607619225978,0.2427054792642593
0.35293798828125,0.4400999844074249,-0.2610000073909759,0.0860999971628189,0.0671079084277153,-0.0501607619225978,0.2427054792642593
0.37278955078125,0.363999992609024,-0.2026000022888183,0.1952999979257583,0.0671079084277153,-0.0501607619225978,0.2427054792642593
0.392642578125,0.7236999869346619,-0.0929999947547912,-0.4159999787807464,0.0744382888078689,-0.1149124801158905,0.1865058839321136
0.412495849609375,0.6322999596595764,0.0433999970555305,-0.9362999796867372,0.0098960166797041,-0.1318596303462982,0.1366069167852401
0.432347412109375,0.4648999869823456,0.1973000019788742,-1.1265000104904177,-0.1247212290763855,-0.1126959100365638,0.10930997133255
0.452200439453125,0.2149000018835067,0.2717999815940857,-0.7768999934196472,-0.2430371046066284,-0.173922061920166,0.0954695120453834
0.472053466796875,0.0340999998152256,0.3317999839782715,-0.4263999760150909,-0.3099530339241028,-0.243630513548851,0.1021366640925407
0.4919052734375,-0.0455999970436096,0.4120999872684479,0.4026999771595001,-0.2641381323337555,-0.1622807085514068,0.1261698454618454
0.51175830078125,-0.0346000008285045,0.340499997138977,0.6967999935150146,-0.0795346572995185,-0.2201209217309951,0.1582315564155578
0.531611328125,0.2888999879360199,0.3507999777793884,0.0678000003099441,-0.0070336768403649,-0.2139948159456253,0.1231329813599586
0.55146435546875,0.0905999988317489,0.42739999294281,-0.0817999988794326,-0.0148178450763225,-0.1940107941627502,0.0700226128101348
0.571314453125,-0.1332999914884567,0.3723999857902527,0.1849000006914138,-0.03186971321702,-0.2331759929656982,0.0617497488856315
0.591169189453125,-0.2248999923467636,0.3837999999523163,0.4741999804973602,-0.0213802829384803,-0.2877873480319977,0.0667937472462654
0.611022216796875,-0.0659999996423721,0.3409999907016754,0.8158999681472778,0.0304559953510761,-0.2750813364982605,0.0406487174332141
0.630873779296875,-0.1363999992609024,0.3055999875068664,1.3263999223709106,0.1769763827323913,-0.28682741522789,0.0081681404262781
0.650725341796875,-0.0800999999046325,0.2849999964237213,0.9884999990463256,0.3244567215442657,-0.2594606578350067,-0.0186924766749143
0.670580078125,0.046399999409914,0.155699998140335,0.2811999917030334,0.3631331920623779,-0.2531425654888153,-0.0765501409769058
0.690431640625,0.0307000000029802,0.2610999941825866,-0.1639000028371811,0.2443809956312179,-0.2744530141353607,-0.1403419226408004
0.71028466796875,-0.0403000004589557,0.1604999899864196,-0.0024999999441206,0.1057844087481498,-0.2563888728618622,-0.2198242247104644
0.7301376953125,-0.1385999917984008,0.2620999813079834,0.996999979019165,0.0871966481208801,-0.0991346985101699,-0.234258085489273
0.749989501953125,-0.2569999992847442,0.1632999926805496,1.3077999353408811,0.187029480934143,0.1067966967821121,-0.2006255984306335
0.769842529296875,-0.986799955368042,0.029399998486042,0.6586999893188477,0.0759916380047798,0.3629412055015564,-0.0969879478216171
0.789694091796875,-1.375599980354309,-0.4160999953746795,1.400399923324585,-0.2859198451042175,0.3497116267681122,0.0634427145123481
0.809547119140625,-0.7238999605178833,-1.354200005531311,2.82669997215271,-0.5308768153190613,0.0200189258903265,0.1550725102424621
0.829400390625,0.1740999966859817,-1.862499952316284,3.417699813842773,-0.4101000130176544,-0.2094744145870208,0.1371305137872696
0.849251953125,1.187399983406067,-2.099799871444702,2.65310001373291,-0.0811403542757034,-0.1898569166660308,0.0073478361591696
0.86910498046875,1.1729999780654907,-1.876599907875061,1.3399999141693115,0.2451664060354232,-0.0196000467985868,-0.1569749116897583
0.888958251953125,0.9646999835968018,-1.5268999338150024,-0.2856000065803528,0.4229979813098907,0.0631809160113334,-0.2492330223321914
0.9088095703125,0.8734999895095825,-1.3292999267578125,-1.8471999168396,0.3751934170722961,0.0341735482215881,-0.2914699912071228
0.9286630859375,0.8151999711990356,-1.128000020980835,-2.406599998474121,0.2023360133171081,0.0523773320019245,-0.2993588745594024
0.94851611328125,0.7929999828338623,-1.0499999523162842,-2.024399995803833,0.0567057467997074,0.0831125751137733,-0.2187072038650512
0.968369140625,1.184399962425232,-1.253000020980835,-1.8382999897003172,-0.0629191175103187,0.1653001308441162,-0.1348965018987655
0.988220703125,2.139999866485596,-1.184000015258789,-0.4165999889373779,-0.166294977068901,0.3711268007755279,-0.2214648276567459
1.008073974609375,0.9637999534606934,-0.9792999625205994,0.9708999991416932,-0.0684867203235626,0.4808556735515594,-0.3363598585128784
1.027927001953125,-0.1262999922037124,-0.6046000123023987,1.1212999820709229,0.0592713803052902,0.4298397004604339,-0.2353751063346862
1.047778564453125,-0.8610000014305115,-0.1509999930858612,0.777999997138977,0.0439822971820831,0.4007275998592376,-0.0104021625593304
1.067631591796875,-0.5871999859809875,-0.2593999803066253,1.0138999223709106,-0.140882983803749,0.2432814389467239,0.2554987370967865
1.08748486328125,0.5936999917030334,-0.8294000029563904,1.7107999324798584,-0.2787639796733856,-0.110584057867527,0.3542843759059906
1.10733642578125,1.5920000076293943,-0.9244999885559082,1.8398000001907349,-0.2052681744098663,-0.2691123187541961,0.2975611686706543
1.127189453125,1.5929999351501465,-0.8533999919891357,1.306399941444397,-0.0162490159273147,-0.1899790912866592,0.184114784002304
1.14704248046875,1.0764999389648438,-0.5386999845504761,0.5953999757766724,0.145630270242691,-0.0508239865303039,0.1428901106119156
1.166894287109375,0.977299988269806,-0.4186999797821045,-0.3445999920368194,0.1636071652173996,-0.0418704487383365,0.1567131131887436
1.186747314453125,1.1971999406814575,-0.3421999812126159,-0.978499948978424,0.0460592396557331,-0.1154186204075813,0.1197470426559448
1.206600341796875,1.2077999114990234,-0.3055000007152557,-0.6712999939918518,-0.0657640025019645,-0.117478109896183,0.0646295398473739
1.226453369140625,1.0410000085830688,-0.1752000004053115,-0.2671999931335449,-0.0602487660944461,-0.0381528958678245,0.0125838238745927
1.24630517578125,0.6172999739646912,-0.045399997383356,-0.3228999972343445,-0.0078016216866672,0.0599346049129962,-0.0027750735171139
1.266158203125,0.1724999994039535,0.0753000006079673,-0.2358999997377395,-0.0038746309000998,0.1478468477725982,0.039601519703865
1.28601123046875,-0.0841999948024749,0.0087999999523162,0.1362999975681305,-0.0134390350431203,0.1260651350021362,0.1335700452327728
1.305864501953125,0.538599967956543,-0.1545999944210052,-0.0611999966204166,-0.0251501947641372,0.0423765927553176,0.1864709705114364
1.325716064453125,0.945099949836731,-0.2377999871969223,-0.3192999958992004,-0.0888023525476455,0.0745255574584007,0.1093797832727432
1.3455693359375,0.6969999670982361,-0.0920999944210052,-0.1422999948263168,-0.128944918513298,0.1023461073637008,0.0353429168462753
1.36542236328125,0.4482999742031097,0.0572999976575374,-0.0354999974370002,-0.1071632131934166,0.1009672954678535,0.0199665669351816
1.385273681640625,0.4373999834060669,0.234499990940094,-0.1629000008106231,-0.0619068294763565,0.1136034801602363,0.0198618471622467
1.405127197265625,0.389299988746643,0.4522999823093414,-0.3055999875068664,-0.0310668610036373,0.1701696068048477,0.035325463861227
1.424980224609375,0.3789999783039093,0.6930999755859375,-0.3073999881744385,-0.0044156829826533,0.2305405437946319,0.0479616485536098
1.444833251953125,0.1723999977111816,0.9576999545097352,-0.1685999929904937,0.0408057980239391,0.2726902365684509,0.0860621854662895
1.464684814453125,0.0584999993443489,1.0658999681472778,-0.1523000001907348,0.0937765389680862,0.2696359157562256,0.1545663625001907
1.484537841796875,0.1147999987006187,1.1337000131607056,-0.2190999984741211,0.1165879964828491,0.2607870995998382,0.2323382347822189
1.5043896484375,0.094200000166893,1.1857999563217163,-0.4106999933719635,0.1095368638634681,0.2452013045549392,0.3165154457092285
1.52424267578125,0.3084999918937683,1.0609999895095823,-0.1416999995708465,0.0794822946190834,0.2609616219997406,0.4051956236362457
1.544095703125,0.6642999649047852,0.8518999814987183,0.183799996972084,0.108070783317089,0.2272069603204727,0.455705463886261
1.56394873046875,0.9988999962806702,0.6667999625205994,0.5507000088691711,0.1889493465423584,0.2353925555944442,0.4608367383480072
1.583800537109375,1.117799997329712,0.7716000080108643,0.3563999831676483,0.29595547914505,0.2127032727003097,0.4468915462493896
1.603653564453125,1.0756999254226685,0.8086000084877014,-0.5830999612808228,0.288607656955719,0.2158448696136474,0.4593183100223541
1.623506591796875,1.1787999868392944,0.9049999713897704,-1.2674000263214111,0.0845786556601524,0.2496169954538345,0.486196368932724
1.643358154296875,1.1074999570846558,0.5848000049591064,-1.25409996509552,-0.2671226263046264,0.2777167856693268,0.4995481371879577
1.66321142578125,0.6477000117301941,0.0414999984204769,0.3247999846935272,-0.624409019947052,0.2858674824237823,0.4505392909049988
1.683064453125,0.0778999999165535,-0.6527000069618225,2.184000015258789,-0.7777535915374756,0.1755975782871246,0.3805690407752991
1.702916015625,-0.0020999999251216,-1.100499987602234,3.469599962234497,-0.668792724609375,0.0515570268034935,0.3000395596027374
1.72276904296875,0.5223999619483948,-1.4261000156402588,3.312999963760376,-0.3032509684562683,-0.0861669033765792,0.1462934911251068
1.742622314453125,1.0357999801635742,-1.3910999298095703,1.431399941444397,0.0175405591726303,-0.1051037237048149,-0.0880169570446014
1.762473876953125,0.8202999830245972,-1.2138999700546265,-0.0307999998331069,0.1722989082336425,0.0372627787292003,-0.3374768495559692
1.782326904296875,0.1905999928712844,-1.003000020980835,-0.6944999694824219,0.2265611886978149,0.1912182718515396,-0.4842416048049927
1.802179931640625,-0.5945000052452087,-0.7998999953269958,-0.7342999577522278,0.1988977193832397,0.3268303573131561,-0.5141216516494751
1.822033447265625,-1.263399958610535,-0.6787999868392944,-0.2058999985456466,0.138718768954277,0.2785370945930481,-0.4907865822315216
1.841886474609375,-2.156299829483032,-0.5264999866485596,-0.0455999970436096,0.0653451234102249,0.1548106968402862,-0.3716154992580414
1.861738037109375,-2.490299940109253,-0.5189999938011169,0.303299993276596,-0.0036128314677625,0.0448200553655624,-0.1200437471270561
1.881591064453125,-1.9613999128341677,-0.7670999765396118,0.3896999955177307,-0.0460592396557331,-0.0399156808853149,0.0967959612607956
1.9014423828125,-1.1023999452590942,-1.176699995994568,0.6179999709129333,-0.1001469939947128,-0.1056622341275215,0.1638864129781723
1.9212958984375,-0.5837000012397766,-1.223599910736084,0.6636999845504761,-0.0908269360661506,-0.236020877957344,0.1268679797649383
1.94114892578125,-0.3689000010490417,-1.084299921989441,0.2766999900341034,-0.0206821523606777,-0.311558723449707,0.0778416842222213
1.96100048828125,-0.4470999836921692,-0.9070999622344972,-0.1147999987006187,0.0583114512264728,-0.2034879326820373,0.0153763508424162
1.980853515625,-0.8436999917030334,-0.5569999814033508,-0.2135999947786331,0.1759117394685745,-0.0527263954281806,-0.0193731542676687
2.000705322265625,-1.2098000049591064,-0.34579998254776,-0.9080999493598938,0.2399478703737259,-0.0227940008044242,-0.0005934119690209
2.020559814453125,-1.3457000255584717,-0.1177999973297119,-1.5274999141693115,0.172124370932579,-0.0136310216039419,0.0471238903701305
2.040411376953125,-1.4443999528884888,-0.0377999991178512,-1.6607999801635742,0.0108908545225858,-0.0254818070679903,0.1245816051959991
2.060262939453125,-1.3930000066757202,-0.0372999981045722,-1.112399935722351,-0.1072504818439483,-0.0791157782077789,0.2048667520284652
2.08011767578125,-1.093500018119812,-0.0666999965906143,-0.9567999839782716,-0.1490511149168014,-0.1110552996397018,0.2656041979789734
2.099970703125,-0.8633999824523926,-0.0505999997258186,-1.1186000108718872,-0.2172760367393493,-0.0548906065523624,0.3009296655654907
2.119822265625,-0.6067000031471252,-0.1503999978303909,-0.8147000074386597,-0.3197617828845978,-0.0352731049060821,0.2934771180152893
2.13967529296875,-0.551800012588501,-0.1339000016450882,-0.126800000667572,-0.3830125033855438,-0.0664097741246223,0.2578200399875641
2.159527099609375,-0.646399974822998,-0.0466999970376491,0.5460999608039856,-0.3483328223228454,-0.1204451695084571,0.2253045588731765
2.179380126953125,-0.865399956703186,0.064300000667572,1.0650999546051023,-0.2149372994899749,-0.2038020938634872,0.2081130594015121
2.199231689453125,-0.9405999779701232,0.2107999920845031,0.4966000020503998,-0.0676315054297447,-0.2265088260173797,0.2272069603204727
2.219084716796875,-0.7860999703407288,0.2816999852657318,-0.1772999912500381,-0.0237015709280967,-0.2218662500381469,0.2203129082918167
2.238937744140625,-0.6595999598503113,0.2856000065803528,-0.6413999795913696,-0.0530405566096305,-0.242530956864357,0.1925970762968063
2.25878955078125,-0.6818000078201294,0.4513999819755554,-0.7739999890327454,-0.0826587900519371,-0.2513448596000671,0.1283864229917526
2.278642578125,-1.1804999113082886,0.6809999942779541,-0.6829999685287476,-0.0821177437901496,-0.2283588796854019,0.1253844499588012
2.31834716796875,-1.100000023841858,0.689300000667572,-0.887999951839447,-0.0464432127773761,-0.2236115783452987,0.286862313747406
2.338200439453125,-0.5076999664306641,0.5188999772071838,-0.5769000053405762,-0.1126959100365638,-0.1875007152557373,0.2457947134971618
2.358053466796875,-0.5432000160217285,0.5859000086784363,0.0330999977886676,-0.1152266338467598,-0.2205572575330734,0.1656666547060012
2.37790673828125,-0.6177999973297119,0.722000002861023,0.1726000010967254,-0.0415911972522735,-0.2042209804058075,0.1383173465728759
2.397758056640625,-0.6287999749183655,0.795699954032898,0.4749999940395355,0.0404567308723926,-0.1363800317049026,0.1253320872783661
2.417611572265625,-0.4699999988079071,0.7565999627113342,0.6758999824523926,0.115680418908596,-0.1919164061546325,0.1137256547808647
2.437464599609375,0.1495999991893768,0.7432999610900879,0.7360000014305115,0.1806939393281936,-0.2215346395969391,0.0484503395855426
2.45731591796875,0.9346999526023864,0.933899998664856,0.8898999691009521,0.3122917711734772,-0.1732937395572662,-0.0775798857212066
2.477169189453125,1.0509999990463257,1.031599998474121,0.3876999914646148,0.4434532523155212,-0.0283441469073295,-0.2177123725414276
2.4970224609375,0.7430999875068665,1.3791999816894531,-0.7213000059127808,0.3731688559055328,0.2361430525779724,-0.297805517911911
2.5168740234375,-0.41279998421669,1.3564000129699707,-0.6596999764442444,0.0577354915440082,0.503894031047821,-0.3217339813709259
2.53672705078125,-1.8420000076293943,1.027400016784668,1.11080002784729,-0.3449468612670898,0.5382246375083923,-0.1811477243900299
2.556580078125,-2.070199966430664,0.0560999996960163,3.3873000144958496,-0.553723156452179,0.1421396136283874,0.0687310621142387
2.576433349609375,-0.5658999681472778,-0.9839999675750732,4.156199932098389,-0.4246037006378174,-0.3542145788669586,0.1770636588335037
2.596286376953125,0.6541000008583069,-1.535599946975708,2.9742000102996826,-0.123674027621746,-0.5001415610313416,0.0999026447534561
2.616137939453125,1.196499943733215,-1.7278000116348269,1.522699952125549,0.1756150275468826,-0.2889567017555237,-0.06373942643404
2.635990966796875,1.0242999792099,-1.737899899482727,0.3206000030040741,0.3953519761562347,0.0111177470535039,-0.2349038571119308
2.655842529296875,0.4289999902248382,-1.8457999229431152,-0.5310999751091003,0.5104215145111084,0.0807563811540603,-0.3332008123397827
2.67569580078125,0.383899986743927,-1.4149999618530271,-1.6377999782562256,0.5270196199417114,0.0802327841520309,-0.3571118116378784
2.695548828125,-0.1686999946832656,-1.035599946975708,-2.4184000492095947,0.3915995359420776,0.1980599611997604,-0.3216118216514587
2.71540185546875,-0.6146000027656555,-0.6710000038146973,-2.2779998779296875,0.1532922685146331,0.3135309517383575,-0.1354375481605529
2.73525341796875,-0.3073999881744385,-0.5892999768257141,-1.362399935722351,-0.0569326393306255,0.449876070022583,0.0532150901854038
2.755106689453125,-0.3428999781608581,-0.685699999332428,-0.3373000025749206,-0.1967858672142028,0.5341579914093018,0.2143613398075103
2.774958251953125,-0.5597999691963196,-0.7670999765396118,1.1862000226974487,-0.2837730944156647,0.4853411614894867,0.3480884730815887
2.794811279296875,-0.6294999718666077,-0.784500002861023,2.124199867248535,-0.3098308444023132,0.2368062734603881,0.4985533058643341
2.814664306640625,0.4602999985218048,-1.1212999820709229,2.744999885559082,-0.2315702885389328,-0.0007504915702156,0.5736722946166992
2.834517578125,1.570099949836731,-1.2458999156951904,2.292099952697754,-0.0241204500198364,-0.1281944364309311,0.4993910491466522
2.854370849609375,2.0841000080108643,-1.111799955368042,0.9830999970436096,0.1688955128192901,-0.0784700065851211,0.3264638483524322
2.87422216796875,1.8751999139785769,-0.6969999670982361,-0.0447000004351139,0.2569299042224884,0.0918392241001129,0.1756324768066406
2.894075439453125,1.4042999744415283,-0.4149999916553497,-0.4269999861717224,0.250542014837265,0.1689129620790481,0.1053306236863136
2.9139287109375,1.1583999395370483,-0.1809999942779541,-0.5640999674797058,0.1647765338420868,0.1400452256202697,0.0863065347075462
2.9337802734375,0.91839998960495,-0.1182999983429908,-0.2474000006914138,0.0892386808991432,0.1262745708227157,0.0881042182445526
2.953631591796875,0.8715999722480774,-0.0719999969005584,-0.0350999981164932,0.0653276741504669,0.1087340116500854,0.1027649864554405
2.973484619140625,0.8986999988555908,-0.1196999996900558,-0.060199998319149,0.0581718236207962,0.0922406539320945,0.1069188714027404
2.993337890625,0.9025999903678894,-0.1565999984741211,0.090499997138977,0.064996063709259,0.1039518117904663,0.1107236891984939
3.013189453125,1.045199990272522,-0.2534999847412109,0.0654999986290931,0.081541784107685,0.1074773743748664,0.1064301803708076
3.033042724609375,0.943399965763092,-0.1671999990940094,-0.0265999995172023,0.0535990595817565,0.1413367688655853,0.0664446875452995
3.052895751953125,0.6449999809265137,-0.0464999973773956,-0.0031999999191612,0.0113970004022121,0.1103571653366088,0.0504574701189994
3.072747314453125,0.6169999837875366,0.0419999994337558,-0.0618999972939491,-0.0359712354838848,0.1130798831582069,0.0672824457287788
3.0926005859375,0.6370999813079834,-0.06700000166893,0.2379999905824661,-0.0619242824614048,0.121858887374401,0.0631634667515754
3.11245361328125,0.5414000153541565,-0.0047999997623264,0.5654000043869019,-0.0117635186761617,0.136938527226448,0.0516093857586383
3.132306640625,0.2043000012636184,0.1756999939680099,0.4755999743938446,0.0819781124591827,0.1716182231903076,0.0422718748450279
3.152158203125,-0.0958999991416931,0.3003999888896942,0.0216999985277652,0.1494525372982025,0.1426283121109008,0.0765501409769058
3.172011474609375,0.0370000004768371,0.3243999779224396,-0.7792999744415283,0.1546012610197067,0.1431169956922531,0.1295906901359558
3.191864501953125,0.3125999867916107,0.2387999892234802,-1.1577999591827393,0.0962723642587661,0.1994562298059463,0.1484751552343368
3.211717529296875,0.3120000064373016,0.1924999952316284,-0.9230999946594238,0.0503003895282745,0.2617295682430267,0.1486322432756424
3.231570556640625,0.3321000039577484,0.1832999885082245,-0.4366999864578247,0.066095620393753,0.2809630930423736,0.1666963994503021
3.25142236328125,0.4617999792098999,0.2493999898433685,-0.4485999941825866,0.1160294860601425,0.2711369097232818,0.1582664549350738
3.271275390625,0.4432999789714813,0.4338999986648559,-0.808899998664856,0.1165705397725105,0.3207566142082214,0.1644623726606369
3.291126953125,0.4817999899387359,0.6471999883651733,-0.65829998254776,0.0751364231109619,0.3884404897689819,0.2001718133687973
3.31097998046875,0.6953999996185303,0.7493999600410461,-0.147499993443489,0.0392350032925605,0.3920707702636719,0.2254965454339981
3.330833251953125,0.946299970149994,0.7884999513626099,0.5663999915122986,0.0578751191496849,0.324247270822525,0.2244842499494552
3.350686279296875,1.184999942779541,0.7752000093460083,0.7127999663352966,0.1692969352006912,0.2353925555944442,0.1950230896472931
3.37053955078125,1.3907999992370603,0.9483999609947203,0.0938000008463859,0.271189272403717,0.2521128058433532,0.1640085875988006
3.390390869140625,1.4839999675750732,1.1038999557495115,-0.5837999582290649,0.2862165570259094,0.2585879862308502,0.1367989033460617
3.410242431640625,1.3350999355316162,1.1588000059127808,-1.2595000267028809,0.1599070727825164,0.2812598049640655,0.1428377479314804
3.430097412109375,1.2495999336242676,0.9686999917030334,-0.944700002670288,-0.0740019604563713,0.2851693332195282,0.1596976220607757
3.449948974609375,1.1496999263763428,0.4174000024795532,0.0143999997526407,-0.2368760854005813,0.2619215548038482,0.1219461560249328
3.469802001953125,0.472599983215332,0.0718999952077865,0.4676999747753143,-0.3372150659561157,0.2580643892288208,0.0969879478216171
3.489655029296875,0.1899999976158142,-0.3729999959468841,1.166800022125244,-0.4240975677967071,0.222215324640274,0.1149997413158416
3.5095068359375,0.6843000054359436,-0.9591999650001526,2.102799892425537,-0.3707079291343689,0.0298102237284183,0.040142573416233
3.52935986328125,1.0343999862670898,-1.0228999853134155,2.167799949645996,-0.1320516169071197,-0.0712268874049186,-0.1452812105417251
3.54921142578125,0.5005999803543091,-0.8205999732017517,1.448199987411499,0.1016305238008499,0.0321140587329864,-0.278798907995224
3.569064453125,-0.0622999966144561,-0.7249000072479248,0.7506999969482422,0.2283588796854019,0.071366511285305,-0.3492927551269531
3.588917724609375,-0.6506999731063843,-0.6496999859809875,0.0945999994874,0.1972571164369583,0.0252898205071687,-0.3383844196796417
3.608770751953125,-1.2177000045776367,-0.6080999970436096,0.0822999998927116,0.0653625801205635,-0.0252549145370721,-0.3021688461303711
3.628622314453125,-1.8443999290466309,-0.553600013256073,0.6358999609947205,-0.0166504401713609,-0.1031838655471801,-0.2184105068445205
3.648475341796875,-2.0597000122070312,-0.7017999887466431,0.7785999774932861,-0.0195825938135385,-0.2493900954723358,-0.0791157782077789
3.66832861328125,-1.4000999927520752,-0.9792999625205994,0.5162000060081482,0.0115366261452436,-0.3194650709629059,0.0287455730140209
3.68818017578125,-0.7324999570846558,-1.2537000179290771,0.0199999995529651,0.0240855440497398,-0.3025877177715301,0.0107861347496509
3.708033203125,-0.1093999966979026,-1.3530999422073364,-0.1509999930858612,0.0188844632357358,-0.21312215924263,-0.1348092257976532
3.72788623046875,-0.6439999938011169,-1.2037999629974363,-0.046399999409914,0.0466875582933425,-0.0566359348595142,-0.308609127998352
3.74773779296875,-1.6449999809265137,-0.8604999780654907,0.2198999971151352,0.1001295372843742,-0.0082205003127455,-0.354773074388504
3.767591064453125,-2.200899839401245,-0.6040999889373779,-0.0374999977648258,0.153623878955841,-0.0703367665410041,-0.2717652022838592
3.787444091796875,-2.04830002784729,-0.3583000004291534,-0.5655999779701233,0.157603234052658,-0.1000073626637458,-0.1662600636482238
3.807297119140625,-1.6445999145507812,-0.3014000058174133,-1.064199924468994,0.1235344037413597,-0.0972497463226318,-0.0773006305098533
3.827148681640625,-1.2381999492645264,-0.2796999812126159,-1.45770001411438,0.0347495041787624,-0.0998851954936981,-0.0279252678155899
3.847001953125,-1.0228999853134155,-0.1262999922037124,-1.4175000190734863,-0.0959756523370742,-0.085695669054985,-0.0035779250320047
3.866855224609375,-0.915399968624115,-0.0784999951720237,-0.7121999859809875,-0.1547583490610122,-0.0831300318241119,0.0100705493241548
3.88670654296875,-0.965399980545044,0.0671999976038932,-0.423799991607666,-0.0958185791969299,-0.0708778202533721,0.0326027497649192
3.9065595703125,-1.0250999927520752,0.2608000040054321,-0.7669999599456787,-0.0459196120500564,-0.063372902572155,0.0840376019477844
3.9264130859375,-0.9899999499320984,0.3366999924182892,-1.2034999132156372,-0.1378984600305557,-0.0741415843367576,0.1395914256572723
3.946264404296875,-0.8833000063896179,0.3292999863624573,-0.7949000000953674,-0.2682920098304748,-0.151442214846611,0.1525941342115402
3.96611767578125,-0.7813999652862549,0.3935000002384186,-0.0554999969899654,-0.2982244193553924,-0.2198067605495453,0.155439019203186
3.985970703125,-0.8387999534606934,0.5414000153541565,0.1412999927997589,-0.2082875967025756,-0.2270847856998443,0.1696809083223343
4.005823974609375,-0.6536999940872192,0.5655999779701233,0.061999998986721,-0.1062032878398895,-0.2069785892963409,0.1922829300165176
4.025675537109375,-0.3495999872684479,0.5324000120162964,-0.3509999811649322,-0.0482583530247211,-0.237120434641838,0.1664869636297226
4.045528564453125,-0.2056999951601028,0.6067999601364136,-0.4746999740600586,-0.0488168597221374,-0.2689377963542938,0.081157810986042
4.065381591796875,-0.6387999653816223,0.8192999958992004,-0.4708999991416931,-0.0516617447137832,-0.2720968425273895,0.0293389838188886
4.124939453125,-0.5011999607086182,0.7709999680519104,0.3019999861717224,0.0192160755395889,-0.2790083289146423,0.0032637657131999
4.144791015625,-0.466399997472763,0.599399983882904,0.7736999988555908,0.0797789990901947,-0.2911034524440765,-0.0349938496947288
4.164644287109375,-0.1684999912977218,0.4860000014305115,1.309399962425232,0.1950230896472931,-0.3640582263469696,-0.0967261493206024
4.184497314453125,-0.3586999773979187,0.3919000029563904,1.041100025177002,0.343218982219696,-0.4408701658248901,-0.1524894088506698
4.204350341796875,-0.3806999921798706,0.4975999891757965,0.3643999993801117,0.4339063167572021,-0.5343849062919617,-0.1361531317234039
4.224201904296875,0.354200005531311,0.5284000039100647,-0.2736999988555908,0.4029965102672577,-0.5173155665397644,-0.1344252526760101
4.244054931640625,1.3467999696731567,0.4763999879360199,0.2830999791622162,0.3219259679317474,-0.3424685001373291,-0.2561096251010895
4.263908203125,1.0372999906539917,0.566100001335144,0.9509999752044678,0.3166027367115021,-0.1930159628391266,-0.4222474992275238
4.283759765625,-0.3580999970436096,0.7350999712944031,0.8733999729156494,0.2994810342788696,0.0086917392909526,-0.4597720801830292
4.30361279296875,-1.7728999853134155,0.7310000061988831,1.058899998664856,0.1709550023078918,0.2617470324039459,-0.2964267134666443
4.3234658203125,-2.0114998817443848,0.1616999953985214,2.0952999591827397,0.0217293482273817,0.1710771769285202,-0.0555189214646816
4.3433193359375,-1.4448000192642212,-0.5870999693870544,2.578199863433838,-0.0050789080560207,-0.1413193047046661,0.103114053606987
4.363170654296875,-0.8486999869346619,-1.0859999656677246,2.037799835205078,0.0575435049831867,-0.3321710526943207,0.1918116807937622
4.38302392578125,-0.2741999924182892,-1.4871000051498413,1.04229998588562,0.1944820433855056,-0.4108504951000213,0.2491282969713211
4.402876953125,0.2809999883174896,-1.7637999057769775,-0.527999997138977,0.2478367537260055,-0.3357315361499786,0.2481334656476974
4.422728759765625,0.623199999332428,-1.8529999256134035,-1.2002999782562256,0.1990198940038681,-0.1995784044265747,0.2165604531764984
4.442580078125,0.9519000053405762,-1.864799976348877,-1.5733999013900757,0.1554913818836212,-0.1755277663469314,0.1605528444051742
4.46243310546875,0.965999960899353,-1.7024999856948853,-1.9799000024795528,0.0277507342398166,-0.1101826354861259,0.1012116447091102
4.482286376953125,0.8201999664306641,-1.5774999856948853,-1.3791999816894531,-0.1066570729017257,0.0873711854219436,0.0876155272126197
4.5021376953125,0.6991999745368958,-1.4785000085830688,-0.2242999970912933,-0.0938463509082794,0.2639985084533691,0.1078089848160743
4.52199267578125,0.5375999808311462,-1.3126999139785769,0.2736999988555908,-0.0290597323328256,0.3283662497997284,0.144932135939598
4.54184423828125,0.3441999852657318,-1.0398999452590942,0.2286999970674514,-0.0447153337299823,0.2895850241184234,0.1914451718330383
4.561697265625,0.1788999885320663,-0.7936999797821045,0.211899995803833,-0.1304109990596771,0.1768018454313278,0.2512052357196808
4.581548828125,0.2827999889850616,-0.6207999587059021,0.354200005531311,-0.1974316388368606,0.1305506229400634,0.3327993750572204
4.601402099609375,0.4691999852657318,-0.5636000037193298,0.7159000039100647,-0.2013062685728073,0.1331511735916137,0.389924019575119
4.621255126953125,0.6801999807357788,-0.4953999817371368,0.8517000079154968,-0.1266236305236816,0.0714188739657402,0.4203450977802276
4.641108154296875,0.9364999532699584,-0.3905999958515167,0.5536999702453613,-0.0386764965951442,0.080442227423191,0.4307647049427032
4.660959716796875,0.9874999523162842,-0.3104999959468841,0.1951999962329864,-0.0006108652451075,0.1112472862005233,0.4196120500564575
4.68081298828125,0.897599995136261,-0.2074999958276748,-0.0811999961733818,-0.0199316591024398,0.1420174390077591,0.392943412065506
4.70066455078125,0.7074999809265137,-0.1405999958515167,-0.261599987745285,-0.0678758546710014,0.1871167421340942,0.3673568964004516
4.720517578125,0.4883999824523926,-0.065600000321865,-0.1917999982833862,-0.1269028931856155,0.1922654658555984,0.3765722513198852
4.74037060546875,0.4754999876022339,-0.1079999953508377,0.0197000000625848,-0.1809906363487243,0.1824567168951034,0.3865031599998474
4.760223876953125,0.4013999998569488,-0.1507000029087066,0.510699987411499,-0.1629788428544998,0.1148077547550201,0.3701319694519043
4.780075439453125,0.3664000034332275,-0.0396999977529048,0.2391999959945678,-0.0874409973621368,0.124756135046482,0.38015016913414
4.799928466796875,0.567799985408783,-0.0494999997317791,-0.2803999781608581,-0.0719948336482048,0.2261946648359298,0.3611609935760498
4.819781494140625,0.6516000032424927,0.0069999997504055,-0.4661999940872192,-0.138701319694519,0.2724633514881134,0.3131469786167145
4.83963330078125,0.8641999959945679,-0.0841000005602836,0.1568000018596649,-0.1571843475103378,0.2304009199142456,0.2319542616605758
4.859486328125,0.8228999972343445,0.1030000001192092,-0.0260999985039234,-0.0571769848465919,0.2357241660356521,0.1595056354999542
4.87933935546875,0.7301999926567078,0.3700000047683716,-0.6509000062942505,0.0122522115707397,0.3948982059955597,0.1519832760095596
4.89919091796875,0.6266999840736389,0.3596999943256378,-0.8679999709129333,-0.0586954243481159,0.4710294604301452,0.1575683206319809
4.919044189453125,0.6929000020027161,0.3418000042438507,-0.8361999988555908,-0.1745503842830658,0.3979699611663818,0.1578650325536728
4.9388974609375,0.746399998664856,0.2653999924659729,-0.3233999907970428,-0.2804569602012634,0.3386811316013336,0.1886177361011505
4.95875048828125,1.1007999181747437,0.0309999994933605,0.6610999703407288,-0.2381152659654617,0.2464230358600616,0.1950754523277282
4.978601806640625,1.3991999626159668,0.0442999973893165,0.3358999788761139,-0.1013512685894966,0.2294933497905731,0.1822821795940399
4.998455078125,1.8328999280929563,0.1116999983787536,-0.2516999840736389,-0.0549953244626522,0.3157474994659424,0.1331337094306945
5.018308349609375,1.7757999897003174,0.2098999917507171,-0.5410000085830688,-0.1036376506090164,0.3440742194652557,0.0650658756494522
5.038159912109375,1.7685999870300293,0.3263999819755554,-0.2162999957799911,-0.1620887219905853,0.2734756469726562,0.0008377580670639
5.058012939453125,1.5090999603271484,0.4628999829292297,0.1623999923467636,-0.1561895161867141,0.2031214237213134,-0.0443662703037261
5.077865966796875,1.407599925994873,0.6474999785423279,0.571399986743927,-0.0688357874751091,0.183748260140419,-0.0448724143207073
5.09771923828125,1.420300006866455,0.6988999843597412,0.4975999891757965,0.0662003383040428,0.1991769671440124,-0.0384146980941295
5.11757080078125,1.49399995803833,0.8242999911308289,0.0920999944210052,0.1313534826040268,0.2115862667560577,-0.0483805276453495
5.137423828125,1.3840999603271484,0.9182999730110168,-0.2583999931812286,0.1417032778263092,0.1722989082336425,-0.0890292450785636
5.15727685546875,1.0354000329971311,1.0792999267578125,-0.1666999906301498,0.1346696019172668,0.193906083703041,-0.0854862257838249
5.177128662109375,0.7882999777793884,1.1628999710083008,0.3856000006198883,0.1879196017980575,0.1738173365592956,-0.0492357388138771
5.196981689453125,0.7895999550819397,1.1876999139785769,-0.116299994289875,0.2243620753288269,0.1761735379695892,0.013613567687571
5.216834716796875,0.6681999564170837,0.9113999605178832,-0.496999979019165,0.1228886321187019,0.245864525437355,0.0622035339474678
5.236686279296875,0.4372999966144562,0.6327999830245972,-0.5523999929428101,-0.1068665087223053,0.2403143793344497,0.1102524474263191
5.25653955078125,0.2110999971628189,0.0803999975323677,0.2055999934673309,-0.329361081123352,0.1798561811447143,0.1163960099220275
5.276392578125,0.1309999972581863,-0.5600999593734741,0.7184000015258789,-0.4426155090332031,-0.0090058986097574,0.1342681795358657
5.29624560546875,0.7224999666213989,-1.0625,1.0532000064849854,-0.3944967687129974,-0.1321912407875061,0.0634427145123481
5.31609716796875,0.8373000025749207,-1.1895999908447266,0.508899986743927,-0.2415535748004913,-0.1259080469608307,-0.0940383374691009
5.33594873046875,0.887499988079071,-1.1655999422073364,-0.3064999878406524,-0.1315280050039291,-0.0323409512639045,-0.2314132004976272
5.355803466796875,0.8578000068664551,-1.0126999616622925,-0.7396000027656555,-0.1125737354159355,0.0531976372003555,-0.3782477676868438
5.375655029296875,0.4336999952793121,-0.6851999759674072,-0.7486000061035156,-0.1558229923248291,0.0799709856510162,-0.4953069984912872
5.395508056640625,-0.1915999948978424,-0.1917999982833862,-0.3292999863624573,-0.2096140384674072,0.1911135464906692,-0.5485569834709167
5.415361572265625,-1.23389995098114,0.1358999907970428,0.5870999693870544,-0.202213853597641,0.3442662060260772,-0.4757592976093292
5.435214599609375,-2.224599838256836,-0.0471999980509281,1.153499960899353,-0.1961400955915451,0.3133563995361328,-0.2531251013278961
5.455066162109375,-2.0318000316619877,-0.1353999972343444,1.7795000076293943,-0.207711637020111,0.1334478706121444,-0.0601091384887695
5.474919189453125,-1.7777999639511108,-0.3414999842643738,2.0688998699188232,-0.196838229894638,-0.0616973899304866,0.0841772258281707
5.4947705078125,-1.1970000267028809,-0.7081999778747559,2.2874999046325684,-0.0906523987650871,-0.1658586412668228,0.1646543592214584
5.5146240234375,-0.574400007724762,-0.8880999684333801,1.6591999530792236,0.1072155758738517,-0.2063851803541183,0.172822505235672
5.534475341796875,-0.1903999894857406,-0.99509996175766,0.6633999943733215,0.2109579443931579,-0.1593834608793258,0.1181762441992759
5.554330078125,-0.3454999923706054,-0.8953999876976013,-0.1859999895095825,0.2004859745502472,-0.1358564347028732,0.0113446405157446
5.574181640625,-0.7524999976158142,-0.6552000045776367,-0.4766999781131744,0.1234645918011665,-0.0716632157564163,-0.0518886372447013
5.594034912109375,-1.0643999576568604,-0.5964999794960022,-0.1938999891281128,0.0679805725812912,-0.0658512711524963,-0.0572991594672203
5.613887939453125,-0.9332000017166138,-0.4983999729156494,-0.1312000006437301,0.0835838168859481,-0.1369908899068832,-0.0642455667257309
5.633739501953125,-0.774899959564209,-0.2854999899864197,-0.6366999745368958,0.090792030096054,-0.084613561630249,-0.0796568244695663
5.653592529296875,-0.5861999988555908,-0.2601999938488006,-0.6211999654769897,0.0511556006968021,-0.0191811677068471,-0.0991870611906051
5.67344580078125,-0.3351999819278717,-0.2865000069141388,-0.3333999812602997,0.0307701546698808,-0.0545415394008159,-0.147427961230278
5.693298828125,-0.2534999847412109,-0.1223999932408332,-0.3418999910354614,0.0524645969271659,-0.031712632626295,-0.2114640921354293
5.713150390625,-0.4958999752998352,0.0873999968171119,-0.2207999974489212,0.0834092870354652,0.0344004407525062,-0.2444159090518951
5.73300341796875,-0.9491999745368958,0.2135999947786331,-0.2335999906063079,0.1163960099220275,0.0214151907712221,-0.1865931451320648
5.752856689453125,-0.7718999981880188,0.1369999945163726,-0.3713999986648559,0.0825889781117439,0.0013962633674964,-0.1138129234313964
5.772708251953125,-0.6234999895095825,0.065600000321865,-0.2373999953269958,0.0063355453312397,0.0090408055111765,-0.0842644944787025
5.792559814453125,-0.7996999621391296,0.0171999987214803,0.3806999921798706,-0.0357967019081115,-0.0327074714004993,-0.0587652362883091
5.812412841796875,-0.8773999810218811,0.0053999996744096,0.8675999641418457,0.0044505894184112,-0.1276882886886596,-0.019390607252717
5.832265869140625,-0.8084999918937683,0.0643999949097633,0.7091999650001526,0.1014559864997863,-0.1760339140892028,0.0232128798961639
5.85211767578125,-0.7515000104904175,0.0760999992489814,0.1266999989748001,0.161250963807106,-0.1816887706518173,0.0597949810326099
5.87197216796875,-0.5906000137329102,0.0668999999761581,-0.4605999886989593,0.1245466917753219,-0.2021614909172058,0.072989672422409
5.89182373046875,-0.3953000009059906,0.0541999973356723,-0.5115000009536743,0.0659559890627861,-0.2463706731796264,0.0475427694618701
5.9116767578125,-0.3725000023841858,0.1991999894380569,-0.4007000029087066,0.0614181347191333,-0.2417106479406356,0.0156905092298984
5.9315302734375,-0.4638999998569488,0.2962000072002411,-0.3488000035285949,0.1322610527276992,-0.2243969738483429,-0.0161966551095247
5.951381591796875,-0.6574000120162964,0.5473999977111816,-0.6240000128746033,0.1776745170354843,-0.1424712240695953,-0.0279950816184282
5.97123486328125,-0.9824000000953674,0.711899995803833,-0.8453999757766724,0.1559975296258926,-0.131824716925621,-0.012025318108499
5.991087890625,-0.9436999559402466,0.7818999886512756,-0.8917999863624573,0.0770213827490806,-0.1700648814439773,0.018186330795288
6.010941162109375,-0.8652999997138977,0.8359999656677246,-0.6212999820709229,0.0251501947641372,-0.1751437932252884,0.026563910767436
6.030792724609375,-0.9648999571800232,0.8697999715805054,0.1254999935626983,0.0610690712928772,-0.143832579255104,0.0247662216424942
6.050645751953125,-1.1763999462127686,0.995199978351593,0.5029999613761902,0.1738696992397308,-0.1743932962417602,0.0655196607112884
6.070498779296875,-1.1023999452590942,1.0120999813079834,0.2232999950647354,0.2643824815750122,-0.2347816973924636,0.1310742199420929
6.0903505859375,-0.7013999819755554,0.8949999809265137,-0.2248999923467636,0.2841745018959045,-0.2634399831295013,0.1623505204916
6.11020361328125,-0.4161999821662903,0.8529999852180481,-0.3474999964237213,0.2466673851013183,-0.2760936319828033,0.1440769284963607
6.13005517578125,-0.3376999795436859,0.7590999603271484,0.066500000655651,0.2436828762292862,-0.3356093466281891,0.1187522038817405
6.149908203125,0.0167999994009733,0.8032000064849854,0.3729999959468841,0.3263591229915619,-0.3744429349899292,0.0967435985803604
6.169761474609375,0.4642999768257141,0.9311999678611756,0.413100004196167,0.4809778332710266,-0.2483079880475998,0.0024958208668977
6.189613037109375,0.0204999987035989,1.2383999824523926,0.0266999993473291,0.5798507332801819,-0.0627620369195938,-0.0953473374247551
6.209466064453125,-0.911300003528595,1.4351999759674072,-0.4449999928474426,0.4781154990196228,0.0870570242404937,-0.0743510276079177
6.229319091796875,-1.9179999828338623,1.2276999950408936,-0.6559999585151672,0.1613207757472992,0.236771360039711,0.0747350007295608
6.249170654296875,-2.1568000316619877,0.4727999866008758,1.3996999263763428,-0.2219535261392593,0.2212379425764084,0.2839650809764862
6.26902392578125,-1.6337999105453491,-0.6567999720573425,3.2616000175476074,-0.3142988979816437,0.008080874569714,0.4147949516773224
6.288876953125,-0.7281999588012695,-1.4556999206542969,4.212500095367432,-0.0958360284566879,-0.123656578361988,0.405981034040451
6.30872998046875,-0.2953999936580658,-1.879199981689453,3.399399995803833,0.2944544851779938,-0.0784874558448791,0.3333055377006531
6.32858154296875,-0.0441999994218349,-1.9279999732971191,1.4460999965667725,0.6134832501411438,0.103515475988388,0.2286381274461746
6.348434814453125,-0.1740999966859817,-1.8446999788284304,-0.3492999970912933,0.7261093258857727,0.2283937782049179,0.1461887806653976
6.368287841796875,-0.1675999909639358,-1.6917999982833862,-1.544399976730347,0.6589316129684448,0.2151990979909896,0.0925373584032058
6.388139404296875,-0.3155999779701233,-1.497499942779541,-2.1166999340057373,0.5115036368370056,0.2564935982227325,0.0744208395481109
6.407992431640625,-0.5630999803543091,-1.277999997138977,-1.8398000001907349,0.3958755731582641,0.4142887890338897,0.1399230509996414
6.427845703125,-0.8503999710083008,-1.097599983215332,-1.583899974822998,0.328942209482193,0.5403015613555908,0.2982593178749084
6.447698974609375,-0.3592000007629394,-0.8080999851226807,-1.618499994277954,0.1919862180948257,0.599241316318512,0.4597022831439972
6.46755029296875,-0.0524999983608722,-1.035599946975708,-1.372399926185608,-0.0354301854968071,0.5906543135643005,0.5860815644264221
6.487403564453125,0.336899995803833,-1.0791000127792358,-0.3066000044345855,-0.2430720031261444,0.5146277546882629,0.6727022528648376
6.5072568359375,0.6754999756813049,-1.235700011253357,0.8057000041007996,-0.2864085435867309,0.4010417461395263,0.7435277104377747
6.5271083984375,1.3217999935150146,-1.2771999835968018,1.3739999532699585,-0.2038195431232452,0.3706730306148529,0.7367209196090698
6.54696142578125,1.3562999963760376,-1.0865999460220337,1.1859999895095823,-0.0901113525032997,0.3249803185462951,0.6827378869056702
6.566814453125,1.3202999830245972,-0.7967999577522278,0.3917999863624573,-0.069568820297718,0.2444682717323303,0.6657384037971497
6.586666015625,1.468699932098389,-0.6669999957084656,0.0996999964118003,-0.1170417815446853,0.1925098150968551,0.6260495781898499
6.606519287109375,1.3478000164031982,-0.4797999858856201,0.3711999952793121,-0.1215447261929512,0.1830850392580032,0.5653121471405029
6.626372314453125,1.0648999214172363,-0.4188999831676483,0.4068999886512756,-0.0728674978017807,0.2068040668964386,0.5479810237884521
6.646225341796875,0.7192999720573425,-0.4148999750614166,0.2415999919176101,-0.0435808710753917,0.2684839963912964,0.5520302057266235
6.666076904296875,0.6288999915122986,-0.474399983882904,0.216399997472763,-0.0588175952434539,0.2785545587539673,0.5608441233634949
6.68593017578125,0.7843999862670898,-0.5115999579429626,0.1994999945163726,-0.0943524986505508,0.2728473246097564,0.5141914486885071
6.705783203125,0.6104999780654907,-0.5722000002861023,0.375,-0.100775308907032,0.3061482012271881,0.4621806442737579
6.725634765625,0.2809000015258789,-0.4257999956607818,0.3734000027179718,-0.0716981217265129,0.3854385018348694,0.4350233078002929
6.74548779296875,0.2619000077247619,-0.3628000020980835,0.5022000074386597,-0.0404392778873443,0.4656189382076263,0.4310788810253143
6.765341064453125,0.2078999876976013,-0.2267999947071075,0.5656999945640564,0.0399156808853149,0.4824264645576477,0.4362799525260925
6.785192626953125,0.3425000011920929,-0.0557999983429908,-0.1564999967813491,0.0631634667515754,0.3974463641643524,0.4538554251194
6.805045654296875,0.5884000062942505,0.0028999999631196,-0.7878999710083008,-0.0282743331044912,0.352573961019516,0.4515166878700256
6.824898681640625,0.8660999536514282,0.1650999933481216,-0.7222999930381775,-0.1094495952129364,0.37102210521698,0.4389503002166748
6.844751953125,0.8833999633789062,0.3504000008106231,-0.733299970626831,-0.1262920200824737,0.414690226316452,0.4704883992671966
6.864603515625,1.0717999935150146,0.3616999983787536,-0.6768999695777893,-0.136519655585289,0.4536285102367401,0.4985882043838501
6.88445654296875,1.312999963760376,0.2958999872207641,-0.1406999975442886,-0.1214923709630966,0.46298348903656,0.4948183000087738
6.904309814453125,1.2930999994277954,0.3261999785900116,0.2006999999284744,-0.0371406078338623,0.4887619912624359,0.4674689769744873
6.924161376953125,0.9239999651908876,0.3212999999523163,0.1200999990105629,0.0179943442344665,0.5121668577194214,0.4905945956707001
6.9440146484375,1.048699975013733,0.2184999883174896,0.349399983882904,0.0298800375312566,0.5206491947174072,0.5099502801895142
6.96386767578125,1.0157999992370603,0.1525000035762787,0.2272000014781952,-0.0075921821407973,0.39613738656044,0.46434485912323
6.983718994140625,0.6818999648094177,0.2594999969005584,0.85589998960495,-0.0319046191871166,0.3774099946022033,0.4176921844482422
7.003572509765625,0.3788999915122986,0.3118999898433685,1.374400019645691,0.1023461073637008,0.3975685536861419,0.4715181589126587
7.023425537109375,0.6426999568939209,0.3999999761581421,0.7591999769210815,0.2728996872901916,0.3505668342113495,0.5183976888656616
7.043277099609375,0.461899995803833,0.60589998960495,-0.5744999647140503,0.2069611400365829,0.4174478352069855,0.5702863335609436
7.063130126953125,-0.1055999994277954,0.498799979686737,-0.5116999745368958,-0.0274016689509153,0.3689975142478943,0.6446548104286194
7.082983154296875,-0.4830999970436096,-0.0301999989897012,0.2330999970436096,-0.2892010509967804,0.1918989568948745,0.7656933665275574
7.1028349609375,0.1863999962806701,-0.7998999953269958,1.4991999864578247,-0.3595901727676391,-0.0071733030490577,0.7901105284690857
7.12268798828125,0.8109999895095825,-1.1543999910354614,2.011899948120117,-0.1717403978109359,-0.0787318050861358,0.6824411749839783
7.142541015625,0.8855999708175659,-1.1167999505996704,1.5428999662399292,0.1258382350206375,0.0469493567943573,0.5074195861816406
7.162392578125,0.1064999997615814,-0.6771999597549438,0.1916999965906143,0.2964092791080475,0.1956339478492736,0.3889989852905273
7.182247314453125,-0.4887000024318695,-0.5306999683380127,-0.6615999937057495,0.1929985135793686,0.2920459508895874,0.3651054203510284
7.202098876953125,-0.7222999930381775,-0.5529999732971191,-0.3971000015735626,-0.0098087508231401,0.2186548411846161,0.324962854385376
7.221951904296875,-0.9346999526023864,-0.4429999887943268,0.4253000020980835,-0.0867079570889473,0.1196248680353164,0.315119206905365
7.241803466796875,-1.2309999465942385,-0.3788000047206878,0.9161999821662904,0.0138230072334408,0.1665218621492386,0.3675488829612732
7.26165673828125,-1.4263999462127686,-0.3902999758720398,0.505299985408783,0.1629264801740646,0.2484825253486633,0.4659505486488342
7.28150830078125,-1.441100001335144,-0.3680999875068664,-0.2336999922990799,0.1063778176903724,0.254521369934082,0.5628686547279358
7.301361328125,-1.5723999738693235,-0.5322999954223633,0.1981000006198883,-0.0157952290028333,0.1635024398565292,0.6067985892295837
7.32121435546875,-1.3799999952316284,-0.8326999545097351,0.4605999886989593,-0.018675023689866,0.0786968991160392,0.6819350719451904
7.341067626953125,-1.4642000198364258,-0.9750999808311462,0.6538999676704407,0.0377340167760849,0.1391376405954361,0.7557624578475952
7.360919189453125,-0.5648999810218811,-1.341599941253662,0.8917999863624573,0.1248084977269172,0.2281494438648224,0.7526558041572571
7.380772216796875,-0.4838999807834625,-1.1922999620437622,0.0104000000283122,0.1490336656570434,0.3905174136161804,0.6614274382591248
7.400625244140625,-0.9941999912261964,-0.9488999843597412,-0.2707000076770782,0.0574911460280418,0.4592833817005157,0.6079679727554321
7.440330078125,-1.0575000047683716,-0.6047999858856201,-0.9874999523162842,-0.1727526932954788,0.4554611146450043,0.5369330644607544
